LabVIEW Measurement	
Writer_Version	2
Reader_Version	2
Separator	Tab
Decimal_Separator	.
Multi_Headings	Yes
X_Columns	One
Time_Pref	Absolute
Operator	labuser
Date	2023/05/24
Time	10:23:45.1018251999999474303
***End_of_Header***	
	
Channels	1	
Samples	10000	
Date	2023/05/24	
Time	10:23:45.1018251999999474303	
Y_Unit_Label	Volts	
X_Dimension	Time	
X0	0.0000000000000000E+0	
Delta_X	0.000500	
***End_of_Header***		
X_Value	Voltage	Comment
0.000000	1.759644
0.000500	1.759644
0.001000	1.759007
0.001500	1.759326
0.002000	1.759963
0.002500	1.758370
0.003000	1.758370
0.003500	1.761874
0.004000	1.759963
0.004500	1.757096
0.005000	1.758688
0.005500	1.762192
0.006000	1.759963
0.006500	1.757096
0.007000	1.758051
0.007500	1.761555
0.008000	1.759007
0.008500	1.757414
0.009000	1.759326
0.009500	1.761237
0.010000	1.759644
0.010500	1.758370
0.011000	1.759644
0.011500	1.760918
0.012000	1.759007
0.012500	1.759326
0.013000	1.759963
0.013500	1.759963
0.014000	1.757414
0.014500	1.759326
0.015000	1.759644
0.015500	1.760600
0.016000	1.759963
0.016500	1.759644
0.017000	1.758370
0.017500	1.759007
0.018000	1.760600
0.018500	1.760918
0.019000	1.757733
0.019500	1.758688
0.020000	1.762192
0.020500	1.759963
0.021000	1.757096
0.021500	1.758370
0.022000	1.762192
0.022500	1.760600
0.023000	1.757733
0.023500	1.759644
0.024000	1.761555
0.024500	1.759326
0.025000	1.758051
0.025500	1.759963
0.026000	1.760281
0.026500	1.760281
0.027000	1.759326
0.027500	1.759963
0.028000	1.760281
0.028500	1.758370
0.029000	1.759007
0.029500	1.760281
0.030000	1.759644
0.030500	1.759644
0.031000	1.759644
0.031500	1.759644
0.032000	1.759007
0.032500	1.760281
0.033000	1.759644
0.033500	1.758370
0.034000	1.757733
0.034500	1.760918
0.035000	1.760600
0.035500	1.758051
0.036000	1.758688
0.036500	1.761874
0.037000	1.760281
0.037500	1.757096
0.038000	1.759326
0.038500	1.761874
0.039000	1.759963
0.039500	1.757096
0.040000	1.759326
0.040500	1.761874
0.041000	1.759326
0.041500	1.758051
0.042000	1.759644
0.042500	1.760918
0.043000	1.758688
0.043500	1.757733
0.044000	1.760281
0.044500	1.759963
0.045000	1.758688
0.045500	1.759007
0.046000	1.759644
0.046500	1.758370
0.047000	1.759007
0.047500	1.759326
0.048000	1.758688
0.048500	1.759326
0.049000	1.759963
0.049500	1.759007
0.050000	1.758688
0.050500	1.759007
0.051000	1.760600
0.051500	1.759963
0.052000	1.757733
0.052500	1.759007
0.053000	1.762511
0.053500	1.760600
0.054000	1.757096
0.054500	1.758370
0.055000	1.763148
0.055500	1.760281
0.056000	1.756777
0.056500	1.759007
0.057000	1.762511
0.057500	1.760281
0.058000	1.758051
0.058500	1.759326
0.059000	1.760918
0.059500	1.759326
0.060000	1.759007
0.060500	1.760600
0.061000	1.760600
0.061500	1.759007
0.062000	1.760281
0.062500	1.761555
0.063000	1.760281
0.063500	1.760600
0.064000	1.760281
0.064500	1.759644
0.065000	1.759963
0.065500	1.761237
0.066000	1.760600
0.066500	1.759007
0.067000	1.759326
0.067500	1.762511
0.068000	1.761874
0.068500	1.757733
0.069000	1.759007
0.069500	1.763148
0.070000	1.761555
0.070500	1.757733
0.071000	1.759007
0.071500	1.762829
0.072000	1.760600
0.072500	1.757733
0.073000	1.759644
0.073500	1.761874
0.074000	1.759007
0.074500	1.758370
0.075000	1.759963
0.075500	1.761874
0.076000	1.759963
0.076500	1.759326
0.077000	1.759644
0.077500	1.759963
0.078000	1.758688
0.078500	1.759963
0.079000	1.759644
0.079500	1.759963
0.080000	1.759963
0.080500	1.759963
0.081000	1.759326
0.081500	1.758688
0.082000	1.760281
0.082500	1.760600
0.083000	1.758370
0.083500	1.758688
0.084000	1.760918
0.084500	1.760918
0.085000	1.756777
0.085500	1.757733
0.086000	1.761555
0.086500	1.760281
0.087000	1.756459
0.087500	1.758370
0.088000	1.761555
0.088500	1.759326
0.089000	1.757096
0.089500	1.759644
0.090000	1.760281
0.090500	1.759326
0.091000	1.757414
0.091500	1.759644
0.092000	1.759326
0.092500	1.758688
0.093000	1.759326
0.093500	1.758688
0.094000	1.759007
0.094500	1.758688
0.095000	1.759644
0.095500	1.759007
0.096000	1.758688
0.096500	1.759644
0.097000	1.759644
0.097500	1.758688
0.098000	1.757733
0.098500	1.761237
0.099000	1.760281
0.099500	1.756459
0.100000	1.758051
0.100500	1.761874
0.101000	1.759963
0.101500	1.756140
0.102000	1.758370
0.102500	1.762192
0.103000	1.759644
0.103500	1.757096
0.104000	1.758688
0.104500	1.761237
0.105000	1.759963
0.105500	1.758370
0.106000	1.759644
0.106500	1.759963
0.107000	1.759007
0.107500	1.759326
0.108000	1.759963
0.108500	1.759963
0.109000	1.758370
0.109500	1.759326
0.110000	1.759326
0.110500	1.759007
0.111000	1.759963
0.111500	1.759963
0.112000	1.759326
0.112500	1.759326
0.113000	1.759963
0.113500	1.760281
0.114000	1.758370
0.114500	1.758370
0.115000	1.761237
0.115500	1.759326
0.116000	1.758370
0.116500	1.759007
0.117000	1.761555
0.117500	1.760281
0.118000	1.756777
0.118500	1.759007
0.119000	1.762192
0.119500	1.759644
0.120000	1.757096
0.120500	1.759007
0.121000	1.760281
0.121500	1.760281
0.122000	1.757414
0.122500	1.759644
0.123000	1.760600
0.123500	1.759963
0.124000	1.758370
0.124500	1.759326
0.125000	1.759644
0.125500	1.759326
0.126000	1.759963
0.126500	1.760600
0.127000	1.759963
0.127500	1.759007
0.128000	1.759326
0.128500	1.759007
0.129000	1.759326
0.129500	1.759644
0.130000	1.759963
0.130500	1.758051
0.131000	1.758688
0.131500	1.760918
0.132000	1.760600
0.132500	1.758051
0.133000	1.759007
0.133500	1.761555
0.134000	1.759963
0.134500	1.756459
0.135000	1.758688
0.135500	1.763148
0.136000	1.759644
0.136500	1.757414
0.137000	1.758688
0.137500	1.761555
0.138000	1.759007
0.138500	1.757096
0.139000	1.759963
0.139500	1.760600
0.140000	1.759007
0.140500	1.758688
0.141000	1.760281
0.141500	1.759644
0.142000	1.759007
0.142500	1.759007
0.143000	1.760600
0.143500	1.759963
0.144000	1.759644
0.144500	1.759963
0.145000	1.759963
0.145500	1.759644
0.146000	1.759963
0.146500	1.759644
0.147000	1.759007
0.147500	1.758370
0.148000	1.761237
0.148500	1.760281
0.149000	1.758051
0.149500	1.758370
0.150000	1.761237
0.150500	1.760281
0.151000	1.756459
0.151500	1.758051
0.152000	1.762192
0.152500	1.760600
0.153000	1.756777
0.153500	1.759326
0.154000	1.761874
0.154500	1.759644
0.155000	1.757414
0.155500	1.759963
0.156000	1.760918
0.156500	1.758370
0.157000	1.758688
0.157500	1.760281
0.158000	1.759644
0.158500	1.759007
0.159000	1.759326
0.159500	1.759963
0.160000	1.759644
0.160500	1.759326
0.161000	1.759644
0.161500	1.759644
0.162000	1.759644
0.162500	1.760600
0.163000	1.759963
0.163500	1.759326
0.164000	1.759007
0.164500	1.761874
0.165000	1.760918
0.165500	1.758370
0.166000	1.758051
0.166500	1.761874
0.167000	1.760918
0.167500	1.757733
0.168000	1.759007
0.168500	1.762829
0.169000	1.760918
0.169500	1.758051
0.170000	1.759007
0.170500	1.762829
0.171000	1.760600
0.171500	1.757733
0.172000	1.759007
0.172500	1.760918
0.173000	1.758370
0.173500	1.757733
0.174000	1.759326
0.174500	1.760281
0.175000	1.759644
0.175500	1.759326
0.176000	1.759963
0.176500	1.760281
0.177000	1.759007
0.177500	1.759007
0.178000	1.759326
0.178500	1.759326
0.179000	1.759963
0.179500	1.760600
0.180000	1.759007
0.180500	1.759007
0.181000	1.760281
0.181500	1.760281
0.182000	1.758051
0.182500	1.758688
0.183000	1.760600
0.183500	1.759326
0.184000	1.756777
0.184500	1.759326
0.185000	1.761874
0.185500	1.760281
0.186000	1.757414
0.186500	1.758051
0.187000	1.761874
0.187500	1.759963
0.188000	1.756459
0.188500	1.758051
0.189000	1.761237
0.189500	1.759007
0.190000	1.757096
0.190500	1.759326
0.191000	1.760600
0.191500	1.759326
0.192000	1.758370
0.192500	1.759644
0.193000	1.759963
0.193500	1.758688
0.194000	1.759007
0.194500	1.759644
0.195000	1.759007
0.195500	1.759326
0.196000	1.759644
0.196500	1.759326
0.197000	1.758688
0.197500	1.759326
0.198000	1.760281
0.198500	1.758370
0.199000	1.758688
0.199500	1.761555
0.200000	1.759644
0.200500	1.757096
0.201000	1.758370
0.201500	1.761555
0.202000	1.759644
0.202500	1.757096
0.203000	1.758370
0.203500	1.762192
0.204000	1.759007
0.204500	1.755822
0.205000	1.758051
0.205500	1.761555
0.206000	1.759326
0.206500	1.757414
0.207000	1.759963
0.207500	1.759963
0.208000	1.758688
0.208500	1.758051
0.209000	1.759007
0.209500	1.758688
0.210000	1.758051
0.210500	1.757096
0.211000	1.759326
0.211500	1.758370
0.212000	1.758688
0.212500	1.758370
0.213000	1.757733
0.213500	1.757414
0.214000	1.759644
0.214500	1.759326
0.215000	1.757414
0.215500	1.757414
0.216000	1.759963
0.216500	1.759963
0.217000	1.755822
0.217500	1.758051
0.218000	1.760918
0.218500	1.759007
0.219000	1.755822
0.219500	1.757733
0.220000	1.760600
0.220500	1.758370
0.221000	1.756140
0.221500	1.758370
0.222000	1.759963
0.222500	1.758688
0.223000	1.756459
0.223500	1.759326
0.224000	1.760281
0.224500	1.758370
0.225000	1.759007
0.225500	1.759644
0.226000	1.759326
0.226500	1.758688
0.227000	1.759007
0.227500	1.759644
0.228000	1.759007
0.228500	1.759007
0.229000	1.759644
0.229500	1.757733
0.230000	1.757733
0.230500	1.760281
0.231000	1.759007
0.231500	1.757414
0.232000	1.758370
0.232500	1.761237
0.233000	1.760600
0.233500	1.756459
0.234000	1.759326
0.234500	1.761874
0.235000	1.760281
0.235500	1.756777
0.236000	1.758370
0.236500	1.761555
0.237000	1.759963
0.237500	1.758051
0.238000	1.759326
0.238500	1.760600
0.239000	1.759644
0.239500	1.758051
0.240000	1.759326
0.240500	1.759963
0.241000	1.759326
0.241500	1.759326
0.242000	1.760600
0.242500	1.758688
0.243000	1.758370
0.243500	1.759326
0.244000	1.760281
0.244500	1.758370
0.245000	1.760600
0.245500	1.759644
0.246000	1.758688
0.246500	1.759007
0.247000	1.760918
0.247500	1.759963
0.248000	1.757733
0.248500	1.757733
0.249000	1.761555
0.249500	1.760281
0.250000	1.756459
0.250500	1.758051
0.251000	1.761874
0.251500	1.759644
0.252000	1.756777
0.252500	1.759007
0.253000	1.761555
0.253500	1.760281
0.254000	1.757414
0.254500	1.759326
0.255000	1.760281
0.255500	1.759007
0.256000	1.757733
0.256500	1.760281
0.257000	1.759963
0.257500	1.759326
0.258000	1.759326
0.258500	1.759644
0.259000	1.759644
0.259500	1.759007
0.260000	1.759644
0.260500	1.759644
0.261000	1.760281
0.261500	1.759963
0.262000	1.760918
0.262500	1.759644
0.263000	1.759644
0.263500	1.760918
0.264000	1.759963
0.264500	1.758051
0.265000	1.759007
0.265500	1.762192
0.266000	1.761237
0.266500	1.758051
0.267000	1.759326
0.267500	1.763467
0.268000	1.760918
0.268500	1.757733
0.269000	1.760281
0.269500	1.762829
0.270000	1.760281
0.270500	1.758688
0.271000	1.759644
0.271500	1.761874
0.272000	1.760281
0.272500	1.758370
0.273000	1.760281
0.273500	1.761555
0.274000	1.759007
0.274500	1.760281
0.275000	1.760918
0.275500	1.760918
0.276000	1.760281
0.276500	1.760281
0.277000	1.760600
0.277500	1.760281
0.278000	1.760918
0.278500	1.761555
0.279000	1.759644
0.279500	1.759326
0.280000	1.762192
0.280500	1.761237
0.281000	1.758688
0.281500	1.759326
0.282000	1.762829
0.282500	1.761555
0.283000	1.759326
0.283500	1.760281
0.284000	1.763467
0.284500	1.761237
0.285000	1.758051
0.285500	1.759644
0.286000	1.763785
0.286500	1.761555
0.287000	1.758370
0.287500	1.760281
0.288000	1.763148
0.288500	1.760600
0.289000	1.759326
0.289500	1.761555
0.290000	1.762511
0.290500	1.760281
0.291000	1.759963
0.291500	1.762511
0.292000	1.760918
0.292500	1.759963
0.293000	1.760600
0.293500	1.761237
0.294000	1.759963
0.294500	1.759963
0.295000	1.760918
0.295500	1.759963
0.296000	1.759326
0.296500	1.760918
0.297000	1.759963
0.297500	1.758688
0.298000	1.759326
0.298500	1.761555
0.299000	1.760600
0.299500	1.758051
0.300000	1.760600
0.300500	1.763148
0.301000	1.761555
0.301500	1.757733
0.302000	1.759963
0.302500	1.763467
0.303000	1.761555
0.303500	1.757733
0.304000	1.759963
0.304500	1.762511
0.305000	1.761237
0.305500	1.758688
0.306000	1.760600
0.306500	1.761874
0.307000	1.759644
0.307500	1.759326
0.308000	1.760600
0.308500	1.760600
0.309000	1.760281
0.309500	1.760600
0.310000	1.761237
0.310500	1.760281
0.311000	1.760600
0.311500	1.760281
0.312000	1.760281
0.312500	1.759963
0.313000	1.760600
0.313500	1.760918
0.314000	1.759644
0.314500	1.759326
0.315000	1.762192
0.315500	1.760918
0.316000	1.758051
0.316500	1.759326
0.317000	1.761874
0.317500	1.761237
0.318000	1.757096
0.318500	1.759007
0.319000	1.763148
0.319500	1.760600
0.320000	1.757096
0.320500	1.758688
0.321000	1.762511
0.321500	1.760600
0.322000	1.758051
0.322500	1.759007
0.323000	1.761555
0.323500	1.759644
0.324000	1.759007
0.324500	1.759326
0.325000	1.760600
0.325500	1.759644
0.326000	1.759007
0.326500	1.760281
0.327000	1.759644
0.327500	1.759007
0.328000	1.759644
0.328500	1.759963
0.329000	1.759644
0.329500	1.759326
0.330000	1.759963
0.330500	1.759326
0.331000	1.758688
0.331500	1.760281
0.332000	1.760281
0.332500	1.758370
0.333000	1.758688
0.333500	1.761874
0.334000	1.760281
0.334500	1.757096
0.335000	1.759007
0.335500	1.762829
0.336000	1.760918
0.336500	1.757414
0.337000	1.759326
0.337500	1.761555
0.338000	1.760600
0.338500	1.757414
0.339000	1.759007
0.339500	1.761555
0.340000	1.760600
0.340500	1.758370
0.341000	1.759963
0.341500	1.761237
0.342000	1.759644
0.342500	1.759326
0.343000	1.760600
0.343500	1.760281
0.344000	1.759007
0.344500	1.760600
0.345000	1.759963
0.345500	1.759963
0.346000	1.759644
0.346500	1.760600
0.347000	1.759963
0.347500	1.759326
0.348000	1.760918
0.348500	1.760600
0.349000	1.758051
0.349500	1.759326
0.350000	1.762192
0.350500	1.760918
0.351000	1.758370
0.351500	1.758688
0.352000	1.762829
0.352500	1.760281
0.353000	1.757733
0.353500	1.759007
0.354000	1.762192
0.354500	1.760600
0.355000	1.757414
0.355500	1.759963
0.356000	1.762511
0.356500	1.760281
0.357000	1.758370
0.357500	1.759644
0.358000	1.760918
0.358500	1.759326
0.359000	1.758688
0.359500	1.760281
0.360000	1.760281
0.360500	1.759326
0.361000	1.759007
0.361500	1.759007
0.362000	1.759644
0.362500	1.759007
0.363000	1.759644
0.363500	1.759963
0.364000	1.759007
0.364500	1.760600
0.365000	1.760600
0.365500	1.758370
0.366000	1.759644
0.366500	1.761237
0.367000	1.761237
0.367500	1.757733
0.368000	1.759007
0.368500	1.762192
0.369000	1.761237
0.369500	1.758051
0.370000	1.759007
0.370500	1.762829
0.371000	1.761874
0.371500	1.757733
0.372000	1.760281
0.372500	1.762511
0.373000	1.760918
0.373500	1.758370
0.374000	1.760600
0.374500	1.760918
0.375000	1.760281
0.375500	1.759326
0.376000	1.760918
0.376500	1.761237
0.377000	1.760600
0.377500	1.760281
0.378000	1.760918
0.378500	1.760600
0.379000	1.760281
0.379500	1.759963
0.380000	1.760918
0.380500	1.759963
0.381000	1.760918
0.381500	1.761555
0.382000	1.760600
0.382500	1.759326
0.383000	1.760918
0.383500	1.760918
0.384000	1.759007
0.384500	1.759644
0.385000	1.762511
0.385500	1.760600
0.386000	1.758370
0.386500	1.759644
0.387000	1.762829
0.387500	1.760918
0.388000	1.757414
0.388500	1.759963
0.389000	1.762829
0.389500	1.760918
0.390000	1.759007
0.390500	1.760281
0.391000	1.763148
0.391500	1.760918
0.392000	1.759007
0.392500	1.760918
0.393000	1.761237
0.393500	1.760281
0.394000	1.759644
0.394500	1.761555
0.395000	1.760600
0.395500	1.760281
0.396000	1.760918
0.396500	1.760918
0.397000	1.760600
0.397500	1.760600
0.398000	1.761237
0.398500	1.760281
0.399000	1.759644
0.399500	1.762511
0.400000	1.761237
0.400500	1.759644
0.401000	1.760281
0.401500	1.763148
0.402000	1.761874
0.402500	1.758370
0.403000	1.760600
0.403500	1.763785
0.404000	1.761555
0.404500	1.758051
0.405000	1.760281
0.405500	1.764104
0.406000	1.761874
0.406500	1.759326
0.407000	1.760600
0.407500	1.762829
0.408000	1.760918
0.408500	1.759644
0.409000	1.762192
0.409500	1.761237
0.410000	1.760918
0.410500	1.760918
0.411000	1.762192
0.411500	1.760281
0.412000	1.760600
0.412500	1.761237
0.413000	1.760600
0.413500	1.760281
0.414000	1.760918
0.414500	1.761874
0.415000	1.759963
0.415500	1.760600
0.416000	1.762829
0.416500	1.761874
0.417000	1.759326
0.417500	1.759963
0.418000	1.763785
0.418500	1.761874
0.419000	1.757733
0.419500	1.760281
0.420000	1.763467
0.420500	1.761874
0.421000	1.758370
0.421500	1.760600
0.422000	1.763148
0.422500	1.760918
0.423000	1.759326
0.423500	1.760918
0.424000	1.762192
0.424500	1.761874
0.425000	1.759644
0.425500	1.761555
0.426000	1.761237
0.426500	1.761555
0.427000	1.760918
0.427500	1.761237
0.428000	1.760600
0.428500	1.759644
0.429000	1.760918
0.429500	1.761237
0.430000	1.760281
0.430500	1.761555
0.431000	1.761874
0.431500	1.760281
0.432000	1.760918
0.432500	1.762192
0.433000	1.762511
0.433500	1.759326
0.434000	1.760281
0.434500	1.764104
0.435000	1.762192
0.435500	1.759007
0.436000	1.761237
0.436500	1.764741
0.437000	1.762511
0.437500	1.759007
0.438000	1.761237
0.438500	1.763467
0.439000	1.761555
0.439500	1.759963
0.440000	1.760600
0.440500	1.762829
0.441000	1.761555
0.441500	1.759644
0.442000	1.762511
0.442500	1.761874
0.443000	1.759963
0.443500	1.760600
0.444000	1.761874
0.444500	1.761237
0.445000	1.760918
0.445500	1.761237
0.446000	1.762511
0.446500	1.761237
0.447000	1.762192
0.447500	1.761555
0.448000	1.760918
0.448500	1.760918
0.449000	1.761874
0.449500	1.761874
0.450000	1.759326
0.450500	1.760281
0.451000	1.763148
0.451500	1.762511
0.452000	1.758688
0.452500	1.760281
0.453000	1.763785
0.453500	1.761874
0.454000	1.758370
0.454500	1.760918
0.455000	1.763785
0.455500	1.762192
0.456000	1.758051
0.456500	1.760918
0.457000	1.762829
0.457500	1.760600
0.458000	1.760600
0.458500	1.761237
0.459000	1.761874
0.459500	1.760918
0.460000	1.760918
0.460500	1.761237
0.461000	1.760281
0.461500	1.761237
0.462000	1.761237
0.462500	1.761874
0.463000	1.760918
0.463500	1.762192
0.464000	1.761237
0.464500	1.759963
0.465000	1.760600
0.465500	1.762829
0.466000	1.761874
0.466500	1.759007
0.467000	1.759963
0.467500	1.763785
0.468000	1.761555
0.468500	1.758370
0.469000	1.760918
0.469500	1.763785
0.470000	1.761874
0.470500	1.758688
0.471000	1.760600
0.471500	1.763467
0.472000	1.761874
0.472500	1.759007
0.473000	1.760918
0.473500	1.762511
0.474000	1.761237
0.474500	1.760600
0.475000	1.762192
0.475500	1.761874
0.476000	1.761237
0.476500	1.761237
0.477000	1.762511
0.477500	1.760918
0.478000	1.761237
0.478500	1.761874
0.479000	1.761237
0.479500	1.761237
0.480000	1.761237
0.480500	1.761874
0.481000	1.759963
0.481500	1.760281
0.482000	1.762192
0.482500	1.762511
0.483000	1.759326
0.483500	1.760281
0.484000	1.763148
0.484500	1.761237
0.485000	1.758688
0.485500	1.759963
0.486000	1.762511
0.486500	1.762511
0.487000	1.758688
0.487500	1.760918
0.488000	1.763148
0.488500	1.761237
0.489000	1.759007
0.489500	1.760600
0.490000	1.763148
0.490500	1.760918
0.491000	1.759963
0.491500	1.761555
0.492000	1.762511
0.492500	1.760600
0.493000	1.760600
0.493500	1.761555
0.494000	1.760918
0.494500	1.760918
0.495000	1.761237
0.495500	1.760600
0.496000	1.760600
0.496500	1.761555
0.497000	1.760918
0.497500	1.759007
0.498000	1.760281
0.498500	1.762829
0.499000	1.761874
0.499500	1.759007
0.500000	1.760281
0.500500	1.764741
0.501000	1.762192
0.501500	1.758051
0.502000	1.759963
0.502500	1.764104
0.503000	1.761237
0.503500	1.758688
0.504000	1.760918
0.504500	1.762192
0.505000	1.760918
0.505500	1.759963
0.506000	1.760600
0.506500	1.761237
0.507000	1.759963
0.507500	1.760281
0.508000	1.761555
0.508500	1.760600
0.509000	1.760281
0.509500	1.759963
0.510000	1.761555
0.510500	1.760600
0.511000	1.760281
0.511500	1.761237
0.512000	1.759644
0.512500	1.760281
0.513000	1.761874
0.513500	1.761237
0.514000	1.758688
0.514500	1.759326
0.515000	1.762511
0.515500	1.759963
0.516000	1.758051
0.516500	1.759007
0.517000	1.762192
0.517500	1.760281
0.518000	1.757414
0.518500	1.759007
0.519000	1.762511
0.519500	1.759963
0.520000	1.758051
0.520500	1.759644
0.521000	1.762192
0.521500	1.760281
0.522000	1.759326
0.522500	1.760918
0.523000	1.760281
0.523500	1.758688
0.524000	1.758688
0.524500	1.760281
0.525000	1.759963
0.525500	1.759644
0.526000	1.760600
0.526500	1.759644
0.527000	1.759007
0.527500	1.760600
0.528000	1.760600
0.528500	1.758051
0.529000	1.758370
0.529500	1.761237
0.530000	1.760918
0.530500	1.758051
0.531000	1.759007
0.531500	1.761555
0.532000	1.760600
0.532500	1.757096
0.533000	1.759963
0.533500	1.762829
0.534000	1.760281
0.534500	1.757733
0.535000	1.759007
0.535500	1.762192
0.536000	1.760918
0.536500	1.758370
0.537000	1.759644
0.537500	1.761555
0.538000	1.759963
0.538500	1.759326
0.539000	1.760600
0.539500	1.760600
0.540000	1.759644
0.540500	1.759963
0.541000	1.759963
0.541500	1.760600
0.542000	1.760281
0.542500	1.760600
0.543000	1.760281
0.543500	1.759963
0.544000	1.760918
0.544500	1.761555
0.545000	1.759326
0.545500	1.759644
0.546000	1.762192
0.546500	1.760600
0.547000	1.759007
0.547500	1.760281
0.548000	1.762829
0.548500	1.760918
0.549000	1.757733
0.549500	1.759326
0.550000	1.762829
0.550500	1.760918
0.551000	1.757733
0.551500	1.760600
0.552000	1.762192
0.552500	1.760600
0.553000	1.759007
0.553500	1.760281
0.554000	1.761237
0.554500	1.759963
0.555000	1.759963
0.555500	1.761237
0.556000	1.761555
0.556500	1.759963
0.557000	1.760600
0.557500	1.760281
0.558000	1.759326
0.558500	1.759326
0.559000	1.760281
0.559500	1.758688
0.560000	1.759644
0.560500	1.760600
0.561000	1.761237
0.561500	1.758688
0.562000	1.759326
0.562500	1.762192
0.563000	1.760600
0.563500	1.757733
0.564000	1.758688
0.564500	1.762511
0.565000	1.761237
0.565500	1.757414
0.566000	1.759007
0.566500	1.762192
0.567000	1.760600
0.567500	1.758051
0.568000	1.759963
0.568500	1.762192
0.569000	1.759326
0.569500	1.759326
0.570000	1.760600
0.570500	1.760600
0.571000	1.760281
0.571500	1.759326
0.572000	1.761237
0.572500	1.759644
0.573000	1.759963
0.573500	1.759963
0.574000	1.759963
0.574500	1.760281
0.575000	1.761237
0.575500	1.761237
0.576000	1.759963
0.576500	1.759963
0.577000	1.762192
0.577500	1.760600
0.578000	1.758370
0.578500	1.759326
0.579000	1.763148
0.579500	1.760600
0.580000	1.758370
0.580500	1.760600
0.581000	1.762829
0.581500	1.759963
0.582000	1.757733
0.582500	1.760281
0.583000	1.762511
0.583500	1.760600
0.584000	1.758370
0.584500	1.759963
0.585000	1.761874
0.585500	1.759644
0.586000	1.759326
0.586500	1.760600
0.587000	1.760918
0.587500	1.760600
0.588000	1.759326
0.588500	1.762192
0.589000	1.761237
0.589500	1.760600
0.590000	1.760600
0.590500	1.760918
0.591000	1.760281
0.591500	1.760600
0.592000	1.761237
0.592500	1.759326
0.593000	1.759644
0.593500	1.762829
0.594000	1.761874
0.594500	1.758688
0.595000	1.759326
0.595500	1.762192
0.596000	1.761555
0.596500	1.758688
0.597000	1.759644
0.597500	1.762829
0.598000	1.761237
0.598500	1.757414
0.599000	1.759963
0.599500	1.762829
0.600000	1.761555
0.600500	1.758370
0.601000	1.759963
0.601500	1.762511
0.602000	1.760281
0.602500	1.759326
0.603000	1.761874
0.603500	1.760918
0.604000	1.760281
0.604500	1.760281
0.605000	1.760918
0.605500	1.759963
0.606000	1.760281
0.606500	1.760600
0.607000	1.760600
0.607500	1.760281
0.608000	1.759963
0.608500	1.761237
0.609000	1.759644
0.609500	1.759326
0.610000	1.760281
0.610500	1.761555
0.611000	1.759326
0.611500	1.759007
0.612000	1.762829
0.612500	1.760918
0.613000	1.757733
0.613500	1.758688
0.614000	1.762829
0.614500	1.761237
0.615000	1.757733
0.615500	1.759007
0.616000	1.762511
0.616500	1.759963
0.617000	1.757414
0.617500	1.759644
0.618000	1.761555
0.618500	1.759644
0.619000	1.757733
0.619500	1.759644
0.620000	1.759644
0.620500	1.759326
0.621000	1.758370
0.621500	1.759644
0.622000	1.760281
0.622500	1.758370
0.623000	1.758688
0.623500	1.759963
0.624000	1.759326
0.624500	1.758688
0.625000	1.759326
0.625500	1.759644
0.626000	1.759326
0.626500	1.759007
0.627000	1.760600
0.627500	1.759007
0.628000	1.759007
0.628500	1.760281
0.629000	1.760600
0.629500	1.757414
0.630000	1.758688
0.630500	1.760918
0.631000	1.760600
0.631500	1.756459
0.632000	1.758688
0.632500	1.761874
0.633000	1.759963
0.633500	1.756459
0.634000	1.759007
0.634500	1.761237
0.635000	1.759963
0.635500	1.757733
0.636000	1.759644
0.636500	1.761555
0.637000	1.759644
0.637500	1.758051
0.638000	1.760281
0.638500	1.760281
0.639000	1.759963
0.639500	1.759007
0.640000	1.760600
0.640500	1.759326
0.641000	1.759963
0.641500	1.759007
0.642000	1.759644
0.642500	1.759326
0.643000	1.759644
0.643500	1.760281
0.644000	1.759644
0.644500	1.759963
0.645000	1.761237
0.645500	1.761555
0.646000	1.758688
0.646500	1.760600
0.647000	1.762192
0.647500	1.761555
0.648000	1.757414
0.648500	1.759326
0.649000	1.763467
0.649500	1.760600
0.650000	1.758370
0.650500	1.759963
0.651000	1.763148
0.651500	1.760918
0.652000	1.758688
0.652500	1.760600
0.653000	1.761237
0.653500	1.759963
0.654000	1.759007
0.654500	1.761237
0.655000	1.760600
0.655500	1.759963
0.656000	1.760600
0.656500	1.760918
0.657000	1.760281
0.657500	1.760600
0.658000	1.760918
0.658500	1.759963
0.659000	1.760281
0.659500	1.760918
0.660000	1.761874
0.660500	1.758688
0.661000	1.759326
0.661500	1.762829
0.662000	1.761555
0.662500	1.758051
0.663000	1.759644
0.663500	1.762829
0.664000	1.761237
0.664500	1.757096
0.665000	1.759644
0.665500	1.762511
0.666000	1.761555
0.666500	1.758688
0.667000	1.759963
0.667500	1.760918
0.668000	1.760281
0.668500	1.759326
0.669000	1.760600
0.669500	1.760918
0.670000	1.759644
0.670500	1.760281
0.671000	1.761237
0.671500	1.760918
0.672000	1.759644
0.672500	1.760281
0.673000	1.760918
0.673500	1.759963
0.674000	1.760918
0.674500	1.760600
0.675000	1.759326
0.675500	1.759644
0.676000	1.762192
0.676500	1.761555
0.677000	1.758051
0.677500	1.759007
0.678000	1.762192
0.678500	1.761874
0.679000	1.757414
0.679500	1.759644
0.680000	1.762511
0.680500	1.760600
0.681000	1.758370
0.681500	1.760281
0.682000	1.762192
0.682500	1.760281
0.683000	1.759326
0.683500	1.759007
0.684000	1.760918
0.684500	1.759963
0.685000	1.759326
0.685500	1.760281
0.686000	1.759644
0.686500	1.759644
0.687000	1.759644
0.687500	1.760281
0.688000	1.759326
0.688500	1.758688
0.689000	1.759963
0.689500	1.759644
0.690000	1.758370
0.690500	1.760918
0.691000	1.759963
0.691500	1.757733
0.692000	1.758688
0.692500	1.760918
0.693000	1.760281
0.693500	1.756459
0.694000	1.758688
0.694500	1.762192
0.695000	1.760281
0.695500	1.756777
0.696000	1.759007
0.696500	1.761555
0.697000	1.760281
0.697500	1.757096
0.698000	1.759007
0.698500	1.761555
0.699000	1.759644
0.699500	1.758051
0.700000	1.759326
0.700500	1.759644
0.701000	1.759007
0.701500	1.758688
0.702000	1.759644
0.702500	1.759007
0.703000	1.759007
0.703500	1.759007
0.704000	1.759007
0.704500	1.759644
0.705000	1.759007
0.705500	1.759326
0.706000	1.759007
0.706500	1.758688
0.707000	1.761237
0.707500	1.759963
0.708000	1.757414
0.708500	1.759644
0.709000	1.761555
0.709500	1.759963
0.710000	1.756777
0.710500	1.758688
0.711000	1.761874
0.711500	1.759963
0.712000	1.756777
0.712500	1.759644
0.713000	1.761555
0.713500	1.760281
0.714000	1.757414
0.714500	1.759644
0.715000	1.762511
0.715500	1.759326
0.716000	1.759007
0.716500	1.760281
0.717000	1.759326
0.717500	1.759007
0.718000	1.759007
0.718500	1.760600
0.719000	1.759326
0.719500	1.759326
0.720000	1.759644
0.720500	1.759963
0.721000	1.759326
0.721500	1.760281
0.722000	1.760918
0.722500	1.759326
0.723000	1.759326
0.723500	1.761237
0.724000	1.760281
0.724500	1.758370
0.725000	1.759326
0.725500	1.761874
0.726000	1.760918
0.726500	1.757414
0.727000	1.759007
0.727500	1.763467
0.728000	1.759963
0.728500	1.757414
0.729000	1.759644
0.729500	1.762192
0.730000	1.759963
0.730500	1.758688
0.731000	1.760281
0.731500	1.760281
0.732000	1.760281
0.732500	1.758688
0.733000	1.760918
0.733500	1.760281
0.734000	1.759326
0.734500	1.760281
0.735000	1.760281
0.735500	1.760600
0.736000	1.759963
0.736500	1.761237
0.737000	1.759326
0.737500	1.760281
0.738000	1.761874
0.738500	1.761237
0.739000	1.759326
0.739500	1.759963
0.740000	1.762829
0.740500	1.761555
0.741000	1.758688
0.741500	1.759644
0.742000	1.763148
0.742500	1.761874
0.743000	1.757414
0.743500	1.759963
0.744000	1.763785
0.744500	1.761237
0.745000	1.758688
0.745500	1.760600
0.746000	1.762829
0.746500	1.760918
0.747000	1.759326
0.747500	1.760918
0.748000	1.761874
0.748500	1.760281
0.749000	1.759963
0.749500	1.760918
0.750000	1.762192
0.750500	1.760281
0.751000	1.760918
0.751500	1.760600
0.752000	1.760281
0.752500	1.760281
0.753000	1.760918
0.753500	1.760281
0.754000	1.760600
0.754500	1.760600
0.755000	1.760600
0.755500	1.759326
0.756000	1.758688
0.756500	1.761874
0.757000	1.760918
0.757500	1.757414
0.758000	1.759007
0.758500	1.762829
0.759000	1.760281
0.759500	1.757733
0.760000	1.759326
0.760500	1.762511
0.761000	1.760281
0.761500	1.757414
0.762000	1.760918
0.762500	1.762829
0.763000	1.759963
0.763500	1.759007
0.764000	1.760600
0.764500	1.760918
0.765000	1.759963
0.765500	1.759326
0.766000	1.760600
0.766500	1.760600
0.767000	1.759007
0.767500	1.759963
0.768000	1.760281
0.768500	1.759644
0.769000	1.759644
0.769500	1.760918
0.770000	1.759007
0.770500	1.759007
0.771000	1.760918
0.771500	1.760600
0.772000	1.758370
0.772500	1.759007
0.773000	1.762192
0.773500	1.761237
0.774000	1.758370
0.774500	1.759963
0.775000	1.763467
0.775500	1.760918
0.776000	1.758051
0.776500	1.760281
0.777000	1.763148
0.777500	1.759963
0.778000	1.758370
0.778500	1.760281
0.779000	1.763467
0.779500	1.760281
0.780000	1.759644
0.780500	1.761874
0.781000	1.761874
0.781500	1.759963
0.782000	1.760600
0.782500	1.761555
0.783000	1.761237
0.783500	1.760600
0.784000	1.760918
0.784500	1.760600
0.785000	1.760600
0.785500	1.760600
0.786000	1.761555
0.786500	1.760281
0.787000	1.760600
0.787500	1.761555
0.788000	1.761874
0.788500	1.759644
0.789000	1.759644
0.789500	1.763148
0.790000	1.761237
0.790500	1.757733
0.791000	1.759963
0.791500	1.762829
0.792000	1.761555
0.792500	1.758688
0.793000	1.759644
0.793500	1.762829
0.794000	1.759963
0.794500	1.759326
0.795000	1.766015
0.795500	1.761874
0.796000	1.760281
0.796500	1.759644
0.797000	1.760918
0.797500	1.759963
0.798000	1.759326
0.798500	1.760281
0.799000	1.760281
0.799500	1.759963
0.800000	1.759644
0.800500	1.760281
0.801000	1.759963
0.801500	1.760281
0.802000	1.760600
0.802500	1.760918
0.803000	1.759963
0.803500	1.759326
0.804000	1.761555
0.804500	1.761237
0.805000	1.758370
0.805500	1.759644
0.806000	1.763148
0.806500	1.760918
0.807000	1.757733
0.807500	1.759963
0.808000	1.763467
0.808500	1.761874
0.809000	1.757733
0.809500	1.759644
0.810000	1.762511
0.810500	1.760281
0.811000	1.758688
0.811500	1.760918
0.812000	1.760918
0.812500	1.759644
0.813000	1.759326
0.813500	1.760918
0.814000	1.760918
0.814500	1.759963
0.815000	1.759326
0.815500	1.760918
0.816000	1.760600
0.816500	1.759644
0.817000	1.760281
0.817500	1.759644
0.818000	1.759326
0.818500	1.761237
0.819000	1.760281
0.819500	1.759007
0.820000	1.758688
0.820500	1.761555
0.821000	1.760918
0.821500	1.757414
0.822000	1.759007
0.822500	1.762511
0.823000	1.760281
0.823500	1.756777
0.824000	1.758370
0.824500	1.762192
0.825000	1.759963
0.825500	1.756777
0.826000	1.759963
0.826500	1.760918
0.827000	1.759007
0.827500	1.758370
0.828000	1.759644
0.828500	1.760600
0.829000	1.759007
0.829500	1.759007
0.830000	1.759326
0.830500	1.758688
0.831000	1.759326
0.831500	1.759326
0.832000	1.759007
0.832500	1.759007
0.833000	1.759963
0.833500	1.759963
0.834000	1.758370
0.834500	1.759007
0.835000	1.759644
0.835500	1.760918
0.836000	1.757096
0.836500	1.758688
0.837000	1.761555
0.837500	1.760281
0.838000	1.756777
0.838500	1.758370
0.839000	1.762192
0.839500	1.760600
0.840000	1.757096
0.840500	1.759644
0.841000	1.762511
0.841500	1.759963
0.842000	1.756777
0.842500	1.759963
0.843000	1.761555
0.843500	1.760281
0.844000	1.758688
0.844500	1.759644
0.845000	1.760918
0.845500	1.759007
0.846000	1.759007
0.846500	1.760281
0.847000	1.759326
0.847500	1.759326
0.848000	1.759326
0.848500	1.760281
0.849000	1.758688
0.849500	1.760281
0.850000	1.760600
0.850500	1.759007
0.851000	1.759007
0.851500	1.761237
0.852000	1.759963
0.852500	1.757733
0.853000	1.758688
0.853500	1.761555
0.854000	1.760281
0.854500	1.756777
0.855000	1.759007
0.855500	1.762511
0.856000	1.760281
0.856500	1.757096
0.857000	1.758688
0.857500	1.762511
0.858000	1.760281
0.858500	1.757733
0.859000	1.760281
0.859500	1.762192
0.860000	1.759644
0.860500	1.759007
0.861000	1.760600
0.861500	1.761237
0.862000	1.759007
0.862500	1.759326
0.863000	1.760600
0.863500	1.759644
0.864000	1.759644
0.864500	1.759963
0.865000	1.760281
0.865500	1.759326
0.866000	1.759963
0.866500	1.761237
0.867000	1.759007
0.867500	1.759644
0.868000	1.760918
0.868500	1.760918
0.869000	1.758688
0.869500	1.759644
0.870000	1.762192
0.870500	1.761237
0.871000	1.758370
0.871500	1.759963
0.872000	1.763467
0.872500	1.760600
0.873000	1.757733
0.873500	1.759644
0.874000	1.762511
0.874500	1.760281
0.875000	1.758370
0.875500	1.760918
0.876000	1.763148
0.876500	1.760918
0.877000	1.759644
0.877500	1.761555
0.878000	1.761555
0.878500	1.760281
0.879000	1.760600
0.879500	1.761237
0.880000	1.760600
0.880500	1.760918
0.881000	1.761555
0.881500	1.761237
0.882000	1.760281
0.882500	1.760918
0.883000	1.761237
0.883500	1.760281
0.884000	1.759963
0.884500	1.761555
0.885000	1.760600
0.885500	1.759007
0.886000	1.759644
0.886500	1.762829
0.887000	1.762511
0.887500	1.758051
0.888000	1.759963
0.888500	1.764104
0.889000	1.761874
0.889500	1.758688
0.890000	1.759644
0.890500	1.763148
0.891000	1.760600
0.891500	1.758051
0.892000	1.760600
0.892500	1.761874
0.893000	1.759326
0.893500	1.759326
0.894000	1.760281
0.894500	1.760918
0.895000	1.759963
0.895500	1.760281
0.896000	1.761237
0.896500	1.760281
0.897000	1.761237
0.897500	1.761237
0.898000	1.759963
0.898500	1.759963
0.899000	1.761237
0.899500	1.760918
0.900000	1.759644
0.900500	1.759644
0.901000	1.763148
0.901500	1.760600
0.902000	1.758370
0.902500	1.759963
0.903000	1.763785
0.903500	1.761874
0.904000	1.758051
0.904500	1.760281
0.905000	1.763148
0.905500	1.760600
0.906000	1.758051
0.906500	1.760600
0.907000	1.762829
0.907500	1.760600
0.908000	1.757733
0.908500	1.759326
0.909000	1.761874
0.909500	1.759326
0.910000	1.759007
0.910500	1.760600
0.911000	1.760600
0.911500	1.760281
0.912000	1.760281
0.912500	1.760918
0.913000	1.759963
0.913500	1.760600
0.914000	1.759963
0.914500	1.759326
0.915000	1.759644
0.915500	1.759963
0.916000	1.760918
0.916500	1.757733
0.917000	1.759007
0.917500	1.761237
0.918000	1.760600
0.918500	1.757733
0.919000	1.758051
0.919500	1.762192
0.920000	1.760600
0.920500	1.756777
0.921000	1.759007
0.921500	1.762511
0.922000	1.760281
0.922500	1.757414
0.923000	1.759326
0.923500	1.762192
0.924000	1.759644
0.924500	1.757414
0.925000	1.759963
0.925500	1.760918
0.926000	1.759007
0.926500	1.758051
0.927000	1.759963
0.927500	1.759326
0.928000	1.758051
0.928500	1.759644
0.929000	1.759963
0.929500	1.759644
0.930000	1.760281
0.930500	1.760600
0.931000	1.758688
0.931500	1.759007
0.932000	1.760918
0.932500	1.761555
0.933000	1.758051
0.933500	1.758370
0.934000	1.761874
0.934500	1.759963
0.935000	1.757414
0.935500	1.758688
0.936000	1.762829
0.936500	1.759963
0.937000	1.757414
0.937500	1.760281
0.938000	1.762192
0.938500	1.760281
0.939000	1.758370
0.939500	1.759963
0.940000	1.761874
0.940500	1.759644
0.941000	1.759007
0.941500	1.760281
0.942000	1.760281
0.942500	1.759963
0.943000	1.760600
0.943500	1.760918
0.944000	1.759963
0.944500	1.760281
0.945000	1.761237
0.945500	1.760281
0.946000	1.759644
0.946500	1.760918
0.947000	1.760600
0.947500	1.759326
0.948000	1.759644
0.948500	1.762192
0.949000	1.760281
0.949500	1.757414
0.950000	1.759644
0.950500	1.762511
0.951000	1.760281
0.951500	1.757733
0.952000	1.759644
0.952500	1.762829
0.953000	1.760918
0.953500	1.758051
0.954000	1.759644
0.954500	1.761874
0.955000	1.759644
0.955500	1.759007
0.956000	1.760281
0.956500	1.761237
0.957000	1.759963
0.957500	1.759963
0.958000	1.760918
0.958500	1.759326
0.959000	1.760281
0.959500	1.760600
0.960000	1.759644
0.960500	1.759644
0.961000	1.760281
0.961500	1.761237
0.962000	1.759326
0.962500	1.759644
0.963000	1.761237
0.963500	1.760918
0.964000	1.758370
0.964500	1.758688
0.965000	1.763467
0.965500	1.760918
0.966000	1.757414
0.966500	1.759963
0.967000	1.762829
0.967500	1.760600
0.968000	1.756777
0.968500	1.760918
0.969000	1.761874
0.969500	1.760600
0.970000	1.758688
0.970500	1.760281
0.971000	1.761555
0.971500	1.760600
0.972000	1.759963
0.972500	1.760600
0.973000	1.761237
0.973500	1.759644
0.974000	1.760600
0.974500	1.760918
0.975000	1.760918
0.975500	1.760600
0.976000	1.760281
0.976500	1.761237
0.977000	1.760918
0.977500	1.761237
0.978000	1.761555
0.978500	1.759644
0.979000	1.760281
0.979500	1.761874
0.980000	1.761874
0.980500	1.759326
0.981000	1.759644
0.981500	1.763467
0.982000	1.761874
0.982500	1.758370
0.983000	1.760918
0.983500	1.764422
0.984000	1.761874
0.984500	1.759326
0.985000	1.761237
0.985500	1.763467
0.986000	1.761237
0.986500	1.759644
0.987000	1.761874
0.987500	1.762829
0.988000	1.761237
0.988500	1.760281
0.989000	1.762511
0.989500	1.762511
0.990000	1.760600
0.990500	1.761237
0.991000	1.761555
0.991500	1.761237
0.992000	1.760918
0.992500	1.761237
0.993000	1.761874
0.993500	1.760600
0.994000	1.762511
0.994500	1.762192
0.995000	1.760918
0.995500	1.760918
0.996000	1.763148
0.996500	1.762829
0.997000	1.759963
0.997500	1.760600
0.998000	1.763785
0.998500	1.763148
0.999000	1.759963
0.999500	1.760918
1.000000	1.764741
1.000500	1.762511
1.001000	1.758688
1.001500	1.761237
1.002000	1.764104
1.002500	1.761555
1.003000	1.759644
1.003500	1.761237
1.004000	1.763148
1.004500	1.760918
1.005000	1.761555
1.005500	1.761874
1.006000	1.762511
1.006500	1.760600
1.007000	1.761237
1.007500	1.761874
1.008000	1.761874
1.008500	1.760918
1.009000	1.761555
1.009500	1.760918
1.010000	1.760918
1.010500	1.763148
1.011000	1.762192
1.011500	1.760918
1.012000	1.760600
1.012500	1.762829
1.013000	1.762829
1.013500	1.759326
1.014000	1.761555
1.014500	1.763785
1.015000	1.762192
1.015500	1.759007
1.016000	1.761555
1.016500	1.764104
1.017000	1.761237
1.017500	1.759644
1.018000	1.761555
1.018500	1.763785
1.019000	1.761237
1.019500	1.759963
1.020000	1.761555
1.020500	1.762511
1.021000	1.761237
1.021500	1.759963
1.022000	1.761237
1.022500	1.761874
1.023000	1.760281
1.023500	1.761874
1.024000	1.762192
1.024500	1.760600
1.025000	1.760600
1.025500	1.761237
1.026000	1.761555
1.026500	1.761237
1.027000	1.761874
1.027500	1.762511
1.028000	1.760281
1.028500	1.761237
1.029000	1.763467
1.029500	1.761555
1.030000	1.759963
1.030500	1.760600
1.031000	1.764422
1.031500	1.762192
1.032000	1.758688
1.032500	1.760600
1.033000	1.763785
1.033500	1.761555
1.034000	1.759007
1.034500	1.761237
1.035000	1.763148
1.035500	1.761555
1.036000	1.759644
1.036500	1.761555
1.037000	1.762511
1.037500	1.761237
1.038000	1.760600
1.038500	1.761237
1.039000	1.761874
1.039500	1.760918
1.040000	1.760600
1.040500	1.762192
1.041000	1.761237
1.041500	1.760600
1.042000	1.760600
1.042500	1.761555
1.043000	1.760918
1.043500	1.762829
1.044000	1.762511
1.044500	1.760281
1.045000	1.759963
1.045500	1.763467
1.046000	1.763467
1.046500	1.759007
1.047000	1.760918
1.047500	1.764422
1.048000	1.762192
1.048500	1.759644
1.049000	1.761237
1.049500	1.763785
1.050000	1.761874
1.050500	1.759644
1.051000	1.761237
1.051500	1.763785
1.052000	1.761237
1.052500	1.760918
1.053000	1.762511
1.053500	1.762829
1.054000	1.761237
1.054500	1.761555
1.055000	1.761874
1.055500	1.761874
1.056000	1.761555
1.056500	1.760918
1.057000	1.762192
1.057500	1.761555
1.058000	1.761237
1.058500	1.761555
1.059000	1.760281
1.059500	1.760918
1.060000	1.762829
1.060500	1.763148
1.061000	1.760600
1.061500	1.760918
1.062000	1.763785
1.062500	1.762829
1.063000	1.759963
1.063500	1.760600
1.064000	1.764741
1.064500	1.763148
1.065000	1.759007
1.065500	1.760918
1.066000	1.764104
1.066500	1.761555
1.067000	1.759963
1.067500	1.761555
1.068000	1.763785
1.068500	1.760918
1.069000	1.760600
1.069500	1.762511
1.070000	1.762511
1.070500	1.761237
1.071000	1.761237
1.071500	1.762511
1.072000	1.761555
1.072500	1.761555
1.073000	1.761237
1.073500	1.762192
1.074000	1.761237
1.074500	1.761874
1.075000	1.762511
1.075500	1.759963
1.076000	1.759644
1.076500	1.763148
1.077000	1.761874
1.077500	1.759963
1.078000	1.760281
1.078500	1.764422
1.079000	1.761555
1.079500	1.758688
1.080000	1.760600
1.080500	1.763785
1.081000	1.762192
1.081500	1.759007
1.082000	1.761237
1.082500	1.763467
1.083000	1.761555
1.083500	1.760600
1.084000	1.761555
1.084500	1.762511
1.085000	1.761237
1.085500	1.760918
1.086000	1.761874
1.086500	1.760600
1.087000	1.760600
1.087500	1.761555
1.088000	1.760918
1.088500	1.760918
1.089000	1.761555
1.089500	1.761555
1.090000	1.760281
1.090500	1.760281
1.091000	1.762511
1.091500	1.761874
1.092000	1.758370
1.092500	1.759963
1.093000	1.763467
1.093500	1.761237
1.094000	1.757733
1.094500	1.759326
1.095000	1.763148
1.095500	1.760600
1.096000	1.758370
1.096500	1.759326
1.097000	1.762511
1.097500	1.760281
1.098000	1.758051
1.098500	1.760918
1.099000	1.761874
1.099500	1.760918
1.100000	1.759007
1.100500	1.760281
1.101000	1.760600
1.101500	1.759007
1.102000	1.759644
1.102500	1.760918
1.103000	1.759644
1.103500	1.759963
1.104000	1.760281
1.104500	1.760281
1.105000	1.759963
1.105500	1.761555
1.106000	1.760600
1.106500	1.758688
1.107000	1.759326
1.107500	1.761555
1.108000	1.761555
1.108500	1.758370
1.109000	1.758688
1.109500	1.762511
1.110000	1.760918
1.110500	1.757096
1.111000	1.759007
1.111500	1.762511
1.112000	1.760600
1.112500	1.757733
1.113000	1.759963
1.113500	1.762192
1.114000	1.761237
1.114500	1.759007
1.115000	1.760600
1.115500	1.759963
1.116000	1.759326
1.116500	1.759007
1.117000	1.760281
1.117500	1.760600
1.118000	1.759007
1.118500	1.759963
1.119000	1.761237
1.119500	1.759644
1.120000	1.759963
1.120500	1.760918
1.121000	1.759326
1.121500	1.759326
1.122000	1.762192
1.122500	1.760918
1.123000	1.758688
1.123500	1.759007
1.124000	1.762511
1.124500	1.761237
1.125000	1.758051
1.125500	1.759326
1.126000	1.762829
1.126500	1.760281
1.127000	1.757414
1.127500	1.759644
1.128000	1.764422
1.128500	1.760600
1.129000	1.756777
1.129500	1.759963
1.130000	1.761237
1.130500	1.760600
1.131000	1.758688
1.131500	1.760281
1.132000	1.760918
1.132500	1.759007
1.133000	1.759644
1.133500	1.759963
1.134000	1.760281
1.134500	1.759963
1.135000	1.760600
1.135500	1.760281
1.136000	1.759963
1.136500	1.760281
1.137000	1.760600
1.137500	1.759326
1.138000	1.759963
1.138500	1.761555
1.139000	1.761874
1.139500	1.758688
1.140000	1.758370
1.140500	1.762511
1.141000	1.761237
1.141500	1.757733
1.142000	1.759963
1.142500	1.762829
1.143000	1.760600
1.143500	1.758051
1.144000	1.759963
1.144500	1.762511
1.145000	1.761237
1.145500	1.759644
1.146000	1.760918
1.146500	1.762192
1.147000	1.760281
1.147500	1.759963
1.148000	1.760918
1.148500	1.761555
1.149000	1.760600
1.149500	1.760918
1.150000	1.761555
1.150500	1.761555
1.151000	1.760918
1.151500	1.761237
1.152000	1.761237
1.152500	1.760281
1.153000	1.760600
1.153500	1.761237
1.154000	1.760600
1.154500	1.759326
1.155000	1.762511
1.155500	1.761874
1.156000	1.759963
1.156500	1.760281
1.157000	1.763148
1.157500	1.761874
1.158000	1.758051
1.158500	1.759963
1.159000	1.763785
1.159500	1.761555
1.160000	1.758051
1.160500	1.759963
1.161000	1.763467
1.161500	1.760918
1.162000	1.759326
1.162500	1.760281
1.163000	1.762829
1.163500	1.760600
1.164000	1.759007
1.164500	1.761874
1.165000	1.762192
1.165500	1.760918
1.166000	1.760600
1.166500	1.761237
1.167000	1.761874
1.167500	1.760600
1.168000	1.760918
1.168500	1.761237
1.169000	1.760918
1.169500	1.761874
1.170000	1.761555
1.170500	1.760281
1.171000	1.760600
1.171500	1.761874
1.172000	1.762192
1.172500	1.759963
1.173000	1.760600
1.173500	1.763148
1.174000	1.762511
1.174500	1.759326
1.175000	1.761237
1.175500	1.764104
1.176000	1.762829
1.176500	1.759007
1.177000	1.761237
1.177500	1.764104
1.178000	1.762192
1.178500	1.759326
1.179000	1.761237
1.179500	1.764104
1.180000	1.761555
1.180500	1.760600
1.181000	1.762192
1.181500	1.761874
1.182000	1.761874
1.182500	1.760600
1.183000	1.761874
1.183500	1.761874
1.184000	1.760281
1.184500	1.761555
1.185000	1.762511
1.185500	1.761555
1.186000	1.762192
1.186500	1.762511
1.187000	1.760600
1.187500	1.760918
1.188000	1.762511
1.188500	1.761874
1.189000	1.759644
1.189500	1.759644
1.190000	1.762829
1.190500	1.762192
1.191000	1.759007
1.191500	1.759963
1.192000	1.764104
1.192500	1.761874
1.193000	1.759007
1.193500	1.760600
1.194000	1.764422
1.194500	1.761874
1.195000	1.759644
1.195500	1.761237
1.196000	1.762829
1.196500	1.760918
1.197000	1.759963
1.197500	1.761874
1.198000	1.762511
1.198500	1.761555
1.199000	1.760918
1.199500	1.761874
1.200000	1.762192
1.200500	1.760600
1.201000	1.761555
1.201500	1.762511
1.202000	1.761555
1.202500	1.761237
1.203000	1.761237
1.203500	1.760918
1.204000	1.761555
1.204500	1.763148
1.205000	1.761874
1.205500	1.760600
1.206000	1.760600
1.206500	1.763785
1.207000	1.761874
1.207500	1.759007
1.208000	1.761237
1.208500	1.763785
1.209000	1.761874
1.209500	1.757733
1.210000	1.760600
1.210500	1.763785
1.211000	1.761237
1.211500	1.759007
1.212000	1.761237
1.212500	1.762829
1.213000	1.760600
1.213500	1.759963
1.214000	1.761237
1.214500	1.762192
1.215000	1.761555
1.215500	1.760918
1.216000	1.762192
1.216500	1.761555
1.217000	1.760918
1.217500	1.761555
1.218000	1.761237
1.218500	1.761237
1.219000	1.760918
1.219500	1.761555
1.220000	1.759963
1.220500	1.760918
1.221000	1.762511
1.221500	1.762511
1.222000	1.760600
1.222500	1.759963
1.223000	1.763785
1.223500	1.761874
1.224000	1.759326
1.224500	1.760281
1.225000	1.764104
1.225500	1.761874
1.226000	1.758688
1.226500	1.760281
1.227000	1.764422
1.227500	1.761874
1.228000	1.759644
1.228500	1.761237
1.229000	1.764104
1.229500	1.762192
1.230000	1.759963
1.230500	1.761555
1.231000	1.762511
1.231500	1.760600
1.232000	1.760281
1.232500	1.761237
1.233000	1.761237
1.233500	1.760918
1.234000	1.761237
1.234500	1.761555
1.235000	1.760918
1.235500	1.761237
1.236000	1.761874
1.236500	1.760600
1.237000	1.760918
1.237500	1.762192
1.238000	1.761237
1.238500	1.761237
1.239000	1.759963
1.239500	1.761874
1.240000	1.760918
1.240500	1.759326
1.241000	1.759644
1.241500	1.763467
1.242000	1.761555
1.242500	1.758688
1.243000	1.759963
1.243500	1.763785
1.244000	1.761555
1.244500	1.758688
1.245000	1.760600
1.245500	1.763148
1.246000	1.760918
1.246500	1.759326
1.247000	1.761237
1.247500	1.762192
1.248000	1.760600
1.248500	1.760281
1.249000	1.761237
1.249500	1.761874
1.250000	1.760281
1.250500	1.760281
1.251000	1.761555
1.251500	1.760918
1.252000	1.760600
1.252500	1.760281
1.253000	1.760918
1.253500	1.760918
1.254000	1.760918
1.254500	1.761237
1.255000	1.760918
1.255500	1.759963
1.256000	1.762511
1.256500	1.761874
1.257000	1.758051
1.257500	1.759963
1.258000	1.762829
1.258500	1.762192
1.259000	1.758370
1.259500	1.759963
1.260000	1.763785
1.260500	1.760918
1.261000	1.758688
1.261500	1.760600
1.262000	1.763148
1.262500	1.761237
1.263000	1.758688
1.263500	1.761874
1.264000	1.761555
1.264500	1.760918
1.265000	1.760600
1.265500	1.760600
1.266000	1.761237
1.266500	1.760600
1.267000	1.760600
1.267500	1.761237
1.268000	1.759644
1.268500	1.760600
1.269000	1.761555
1.269500	1.759963
1.270000	1.760600
1.270500	1.760918
1.271000	1.761237
1.271500	1.759963
1.272000	1.759963
1.272500	1.761555
1.273000	1.761237
1.273500	1.758051
1.274000	1.759326
1.274500	1.761555
1.275000	1.760918
1.275500	1.757414
1.276000	1.759326
1.276500	1.762511
1.277000	1.761555
1.277500	1.757414
1.278000	1.759644
1.278500	1.762829
1.279000	1.760918
1.279500	1.759326
1.280000	1.760281
1.280500	1.762511
1.281000	1.759644
1.281500	1.759644
1.282000	1.761555
1.282500	1.760600
1.283000	1.759963
1.283500	1.759963
1.284000	1.760600
1.284500	1.759644
1.285000	1.759963
1.285500	1.760918
1.286000	1.759644
1.286500	1.759644
1.287000	1.761555
1.287500	1.760600
1.288000	1.759644
1.288500	1.759326
1.289000	1.762192
1.289500	1.762511
1.290000	1.758688
1.290500	1.759963
1.291000	1.763785
1.291500	1.761874
1.292000	1.757414
1.292500	1.759644
1.293000	1.763785
1.293500	1.760600
1.294000	1.757414
1.294500	1.760281
1.295000	1.763467
1.295500	1.760600
1.296000	1.759644
1.296500	1.760918
1.297000	1.761874
1.297500	1.760918
1.298000	1.759963
1.298500	1.761237
1.299000	1.760918
1.299500	1.759963
1.300000	1.760281
1.300500	1.760918
1.301000	1.759644
1.301500	1.760600
1.302000	1.760918
1.302500	1.760918
1.303000	1.760281
1.303500	1.761555
1.304000	1.762192
1.304500	1.758688
1.305000	1.759963
1.305500	1.762511
1.306000	1.761237
1.306500	1.758688
1.307000	1.759963
1.307500	1.763467
1.308000	1.762511
1.308500	1.758688
1.309000	1.759963
1.309500	1.763785
1.310000	1.760918
1.310500	1.758051
1.311000	1.760281
1.311500	1.762829
1.312000	1.761237
1.312500	1.759326
1.313000	1.761237
1.313500	1.761555
1.314000	1.760600
1.314500	1.760281
1.315000	1.761555
1.315500	1.761237
1.316000	1.760918
1.316500	1.760281
1.317000	1.761555
1.317500	1.760600
1.318000	1.760281
1.318500	1.761874
1.319000	1.760918
1.319500	1.760281
1.320000	1.762192
1.320500	1.761237
1.321000	1.760281
1.321500	1.760600
1.322000	1.762829
1.322500	1.761555
1.323000	1.758688
1.323500	1.760600
1.324000	1.763467
1.324500	1.761237
1.325000	1.759007
1.325500	1.760281
1.326000	1.764422
1.326500	1.761874
1.327000	1.759326
1.327500	1.760600
1.328000	1.762829
1.328500	1.761874
1.329000	1.758370
1.329500	1.761237
1.330000	1.761874
1.330500	1.760281
1.331000	1.760281
1.331500	1.761555
1.332000	1.760600
1.332500	1.759963
1.333000	1.760600
1.333500	1.761237
1.334000	1.759963
1.334500	1.760600
1.335000	1.760600
1.335500	1.759963
1.336000	1.759644
1.336500	1.761874
1.337000	1.760918
1.337500	1.758370
1.338000	1.759963
1.338500	1.762829
1.339000	1.760918
1.339500	1.757414
1.340000	1.759326
1.340500	1.762829
1.341000	1.760600
1.341500	1.757414
1.342000	1.760600
1.342500	1.762511
1.343000	1.760600
1.343500	1.759007
1.344000	1.759963
1.344500	1.761874
1.345000	1.760600
1.345500	1.759963
1.346000	1.760918
1.346500	1.760600
1.347000	1.759963
1.347500	1.760281
1.348000	1.761237
1.348500	1.761237
1.349000	1.759963
1.349500	1.760600
1.350000	1.760600
1.350500	1.759644
1.351000	1.761874
1.351500	1.761874
1.352000	1.759326
1.352500	1.759963
1.353000	1.763467
1.353500	1.762829
1.354000	1.758370
1.354500	1.759963
1.355000	1.763785
1.355500	1.761874
1.356000	1.758370
1.356500	1.761237
1.357000	1.763785
1.357500	1.760918
1.358000	1.759963
1.358500	1.761874
1.359000	1.762511
1.359500	1.760918
1.360000	1.760600
1.360500	1.762511
1.361000	1.762511
1.361500	1.760918
1.362000	1.760918
1.362500	1.762192
1.363000	1.761555
1.363500	1.760918
1.364000	1.762511
1.364500	1.762829
1.365000	1.760918
1.365500	1.762192
1.366000	1.761555
1.366500	1.760281
1.367000	1.760918
1.367500	1.762829
1.368000	1.761874
1.368500	1.759963
1.369000	1.760281
1.369500	1.764104
1.370000	1.761874
1.370500	1.758688
1.371000	1.760600
1.371500	1.765059
1.372000	1.762511
1.372500	1.758370
1.373000	1.761237
1.373500	1.762829
1.374000	1.761874
1.374500	1.760281
1.375000	1.761555
1.375500	1.761874
1.376000	1.760600
1.376500	1.760600
1.377000	1.762511
1.377500	1.760918
1.378000	1.760918
1.378500	1.761555
1.379000	1.761874
1.379500	1.761555
1.380000	1.761874
1.380500	1.762192
1.381000	1.760600
1.381500	1.761237
1.382000	1.762511
1.382500	1.762511
1.383000	1.759963
1.383500	1.760600
1.384000	1.764104
1.384500	1.763148
1.385000	1.759007
1.385500	1.760281
1.386000	1.763785
1.386500	1.761874
1.387000	1.759007
1.387500	1.760918
1.388000	1.764104
1.388500	1.761555
1.389000	1.759007
1.389500	1.761237
1.390000	1.762829
1.390500	1.761237
1.391000	1.760918
1.391500	1.761874
1.392000	1.762511
1.392500	1.761237
1.393000	1.760600
1.393500	1.761874
1.394000	1.761555
1.394500	1.760600
1.395000	1.760918
1.395500	1.761237
1.396000	1.760600
1.396500	1.762192
1.397000	1.761874
1.397500	1.759963
1.398000	1.760600
1.398500	1.762829
1.399000	1.762511
1.399500	1.758688
1.400000	1.760281
1.400500	1.763467
1.401000	1.762511
1.401500	1.758688
1.402000	1.761237
1.402500	1.763785
1.403000	1.761237
1.403500	1.759007
1.404000	1.761555
1.404500	1.763467
1.405000	1.761237
1.405500	1.761237
1.406000	1.761874
1.406500	1.762511
1.407000	1.761555
1.407500	1.760281
1.408000	1.762829
1.408500	1.760918
1.409000	1.761237
1.409500	1.762192
1.410000	1.761237
1.410500	1.760918
1.411000	1.762192
1.411500	1.762511
1.412000	1.760600
1.412500	1.761237
1.413000	1.762192
1.413500	1.761874
1.414000	1.759644
1.414500	1.760918
1.415000	1.764104
1.415500	1.763785
1.416000	1.759644
1.416500	1.760918
1.417000	1.763467
1.417500	1.761555
1.418000	1.759007
1.418500	1.760600
1.419000	1.762829
1.419500	1.761874
1.420000	1.759963
1.420500	1.761555
1.421000	1.762511
1.421500	1.760918
1.422000	1.759963
1.422500	1.761555
1.423000	1.761555
1.423500	1.761237
1.424000	1.760281
1.424500	1.761237
1.425000	1.760918
1.425500	1.761237
1.426000	1.761237
1.426500	1.760600
1.427000	1.760281
1.427500	1.762511
1.428000	1.761874
1.428500	1.759007
1.429000	1.759963
1.429500	1.763148
1.430000	1.761874
1.430500	1.758051
1.431000	1.759963
1.431500	1.763148
1.432000	1.761237
1.432500	1.758688
1.433000	1.759644
1.433500	1.763148
1.434000	1.760281
1.434500	1.757096
1.435000	1.761237
1.435500	1.762192
1.436000	1.760918
1.436500	1.759963
1.437000	1.762511
1.437500	1.760281
1.438000	1.760600
1.438500	1.760918
1.439000	1.760281
1.439500	1.760600
1.440000	1.761237
1.440500	1.760918
1.441000	1.759963
1.441500	1.759963
1.442000	1.761874
1.442500	1.761237
1.443000	1.759326
1.443500	1.759644
1.444000	1.762511
1.444500	1.760918
1.445000	1.758370
1.445500	1.759963
1.446000	1.763467
1.446500	1.761237
1.447000	1.757733
1.447500	1.760918
1.448000	1.762829
1.448500	1.760600
1.449000	1.757414
1.449500	1.759644
1.450000	1.762192
1.450500	1.760600
1.451000	1.759326
1.451500	1.760281
1.452000	1.760918
1.452500	1.760281
1.453000	1.759963
1.453500	1.761237
1.454000	1.761237
1.454500	1.760281
1.455000	1.760918
1.455500	1.760600
1.456000	1.760918
1.456500	1.760600
1.457000	1.760600
1.457500	1.760600
1.458000	1.759963
1.458500	1.760918
1.459000	1.760600
1.459500	1.759644
1.460000	1.759963
1.460500	1.762192
1.461000	1.760600
1.461500	1.758370
1.462000	1.759326
1.462500	1.762829
1.463000	1.761555
1.463500	1.759007
1.464000	1.759963
1.464500	1.763467
1.465000	1.761237
1.465500	1.758370
1.466000	1.760281
1.466500	1.763148
1.467000	1.760600
1.467500	1.759007
1.468000	1.760918
1.468500	1.762829
1.469000	1.759963
1.469500	1.759963
1.470000	1.762192
1.470500	1.760600
1.471000	1.759963
1.471500	1.761237
1.472000	1.761555
1.472500	1.759963
1.473000	1.760600
1.473500	1.761555
1.474000	1.760918
1.474500	1.760600
1.475000	1.762511
1.475500	1.762511
1.476000	1.759963
1.476500	1.759644
1.477000	1.762511
1.477500	1.762511
1.478000	1.758688
1.478500	1.760600
1.479000	1.764104
1.479500	1.761874
1.480000	1.758688
1.480500	1.760600
1.481000	1.764104
1.481500	1.762192
1.482000	1.759963
1.482500	1.761237
1.483000	1.763467
1.483500	1.761555
1.484000	1.759963
1.484500	1.760918
1.485000	1.762829
1.485500	1.761555
1.486000	1.760600
1.486500	1.761237
1.487000	1.762192
1.487500	1.760918
1.488000	1.761237
1.488500	1.761874
1.489000	1.761555
1.489500	1.760918
1.490000	1.761874
1.490500	1.761237
1.491000	1.760918
1.491500	1.760918
1.492000	1.761555
1.492500	1.760918
1.493000	1.760600
1.493500	1.763148
1.494000	1.761874
1.494500	1.759963
1.495000	1.760600
1.495500	1.763148
1.496000	1.762829
1.496500	1.759326
1.497000	1.760600
1.497500	1.763148
1.498000	1.761555
1.498500	1.758688
1.499000	1.760281
1.499500	1.764422
1.500000	1.762192
1.500500	1.759326
1.501000	1.761555
1.501500	1.762511
1.502000	1.760918
1.502500	1.760600
1.503000	1.761237
1.503500	1.762511
1.504000	1.760600
1.504500	1.760281
1.505000	1.761874
1.505500	1.760918
1.506000	1.761237
1.506500	1.761555
1.507000	1.761237
1.507500	1.761237
1.508000	1.761874
1.508500	1.761874
1.509000	1.759326
1.509500	1.760600
1.510000	1.763148
1.510500	1.761555
1.511000	1.758688
1.511500	1.760600
1.512000	1.763785
1.512500	1.762511
1.513000	1.758688
1.513500	1.761237
1.514000	1.764422
1.514500	1.761874
1.515000	1.759326
1.515500	1.760918
1.516000	1.763148
1.516500	1.761237
1.517000	1.760600
1.517500	1.761237
1.518000	1.762192
1.518500	1.760918
1.519000	1.761555
1.519500	1.761555
1.520000	1.761237
1.520500	1.760600
1.521000	1.761237
1.521500	1.761874
1.522000	1.760600
1.522500	1.761874
1.523000	1.761874
1.523500	1.760281
1.524000	1.759963
1.524500	1.762511
1.525000	1.762192
1.525500	1.759007
1.526000	1.760281
1.526500	1.764104
1.527000	1.761237
1.527500	1.758688
1.528000	1.760918
1.528500	1.763148
1.529000	1.761555
1.529500	1.758688
1.530000	1.760600
1.530500	1.762511
1.531000	1.761237
1.531500	1.759963
1.532000	1.761555
1.532500	1.761874
1.533000	1.760918
1.533500	1.761237
1.534000	1.761874
1.534500	1.761237
1.535000	1.760600
1.535500	1.761874
1.536000	1.761874
1.536500	1.760918
1.537000	1.761237
1.537500	1.762511
1.538000	1.759963
1.538500	1.760918
1.539000	1.762511
1.539500	1.762829
1.540000	1.759963
1.540500	1.760281
1.541000	1.763148
1.541500	1.762511
1.542000	1.759963
1.542500	1.760281
1.543000	1.764422
1.543500	1.761874
1.544000	1.759326
1.544500	1.762511
1.545000	1.764104
1.545500	1.761874
1.546000	1.759007
1.546500	1.761237
1.547000	1.763785
1.547500	1.762511
1.548000	1.760600
1.548500	1.762511
1.549000	1.763467
1.549500	1.761237
1.550000	1.761237
1.550500	1.762511
1.551000	1.761874
1.551500	1.761874
1.552000	1.761555
1.552500	1.761555
1.553000	1.761555
1.553500	1.761874
1.554000	1.761555
1.554500	1.761555
1.555000	1.761237
1.555500	1.763467
1.556000	1.761874
1.556500	1.760281
1.557000	1.760918
1.557500	1.764422
1.558000	1.762511
1.558500	1.758688
1.559000	1.760918
1.559500	1.764104
1.560000	1.761874
1.560500	1.759326
1.561000	1.761555
1.561500	1.763467
1.562000	1.761555
1.562500	1.759644
1.563000	1.762192
1.563500	1.763467
1.564000	1.761555
1.564500	1.760918
1.565000	1.762192
1.565500	1.761874
1.566000	1.761237
1.566500	1.761874
1.567000	1.762192
1.567500	1.761555
1.568000	1.761237
1.568500	1.762192
1.569000	1.761237
1.569500	1.761874
1.570000	1.763467
1.570500	1.762829
1.571000	1.761237
1.571500	1.761237
1.572000	1.764104
1.572500	1.763467
1.573000	1.760600
1.573500	1.761555
1.574000	1.765059
1.574500	1.763148
1.575000	1.759644
1.575500	1.762192
1.576000	1.765696
1.576500	1.763785
1.577000	1.760281
1.577500	1.761874
1.578000	1.765378
1.578500	1.762511
1.579000	1.761555
1.579500	1.763148
1.580000	1.762829
1.580500	1.762192
1.581000	1.762192
1.581500	1.762511
1.582000	1.762511
1.582500	1.762829
1.583000	1.762829
1.583500	1.762829
1.584000	1.761874
1.584500	1.762511
1.585000	1.763148
1.585500	1.762511
1.586000	1.763148
1.586500	1.764104
1.587000	1.763467
1.587500	1.761555
1.588000	1.762192
1.588500	1.764422
1.589000	1.763785
1.589500	1.760281
1.590000	1.761874
1.590500	1.765378
1.591000	1.763148
1.591500	1.760281
1.592000	1.762192
1.592500	1.765378
1.593000	1.763148
1.593500	1.760918
1.594000	1.762192
1.594500	1.764104
1.595000	1.762829
1.595500	1.761874
1.596000	1.763467
1.596500	1.763148
1.597000	1.762192
1.597500	1.761555
1.598000	1.763148
1.598500	1.762511
1.599000	1.762192
1.599500	1.762192
1.600000	1.762829
1.600500	1.762511
1.601000	1.762829
1.601500	1.764104
1.602000	1.762511
1.602500	1.761555
1.603000	1.764741
1.603500	1.764104
1.604000	1.760600
1.604500	1.761874
1.605000	1.765059
1.605500	1.763467
1.606000	1.759326
1.606500	1.761874
1.607000	1.764422
1.607500	1.763148
1.608000	1.759326
1.608500	1.762192
1.609000	1.765059
1.609500	1.761874
1.610000	1.760281
1.610500	1.762511
1.611000	1.763785
1.611500	1.762511
1.612000	1.761237
1.612500	1.762829
1.613000	1.762511
1.613500	1.761237
1.614000	1.762192
1.614500	1.762511
1.615000	1.762192
1.615500	1.762192
1.616000	1.762511
1.616500	1.761874
1.617000	1.761555
1.617500	1.762829
1.618000	1.761555
1.618500	1.760918
1.619000	1.760918
1.619500	1.762829
1.620000	1.763467
1.620500	1.760918
1.621000	1.761874
1.621500	1.764422
1.622000	1.762511
1.622500	1.759963
1.623000	1.762192
1.623500	1.765059
1.624000	1.762511
1.624500	1.759963
1.625000	1.761555
1.625500	1.764422
1.626000	1.762192
1.626500	1.759963
1.627000	1.761555
1.627500	1.764422
1.628000	1.761237
1.628500	1.760600
1.629000	1.762511
1.629500	1.761874
1.630000	1.761555
1.630500	1.761237
1.631000	1.762192
1.631500	1.761555
1.632000	1.761237
1.632500	1.761237
1.633000	1.761555
1.633500	1.761555
1.634000	1.761237
1.634500	1.760918
1.635000	1.761237
1.635500	1.760918
1.636000	1.761874
1.636500	1.761874
1.637000	1.759963
1.637500	1.760600
1.638000	1.763467
1.638500	1.762511
1.639000	1.759007
1.639500	1.760281
1.640000	1.763467
1.640500	1.761555
1.641000	1.758051
1.641500	1.761555
1.642000	1.764422
1.642500	1.762192
1.643000	1.759326
1.643500	1.760918
1.644000	1.763467
1.644500	1.761237
1.645000	1.759326
1.645500	1.761237
1.646000	1.762829
1.646500	1.761555
1.647000	1.760281
1.647500	1.761874
1.648000	1.760918
1.648500	1.760918
1.649000	1.760918
1.649500	1.761555
1.650000	1.760918
1.650500	1.761555
1.651000	1.762192
1.651500	1.760918
1.652000	1.760918
1.652500	1.762829
1.653000	1.761874
1.653500	1.759963
1.654000	1.761237
1.654500	1.763148
1.655000	1.761874
1.655500	1.759644
1.656000	1.759963
1.656500	1.763467
1.657000	1.761555
1.657500	1.758370
1.658000	1.760600
1.658500	1.763785
1.659000	1.761874
1.659500	1.759007
1.660000	1.759963
1.660500	1.763467
1.661000	1.761555
1.661500	1.759963
1.662000	1.761555
1.662500	1.761874
1.663000	1.760600
1.663500	1.760600
1.664000	1.761237
1.664500	1.761555
1.665000	1.761237
1.665500	1.760918
1.666000	1.762192
1.666500	1.760918
1.667000	1.760600
1.667500	1.761237
1.668000	1.760918
1.668500	1.760600
1.669000	1.762192
1.669500	1.762511
1.670000	1.760281
1.670500	1.760600
1.671000	1.764104
1.671500	1.762511
1.672000	1.759007
1.672500	1.761237
1.673000	1.764104
1.673500	1.762192
1.674000	1.759007
1.674500	1.761555
1.675000	1.764104
1.675500	1.761874
1.676000	1.760281
1.676500	1.761237
1.677000	1.762829
1.677500	1.761555
1.678000	1.760281
1.678500	1.762192
1.679000	1.761874
1.679500	1.761237
1.680000	1.759963
1.680500	1.762511
1.681000	1.760600
1.681500	1.760600
1.682000	1.761874
1.682500	1.761874
1.683000	1.760918
1.683500	1.762192
1.684000	1.761237
1.684500	1.760281
1.685000	1.760600
1.685500	1.762511
1.686000	1.761874
1.686500	1.759326
1.687000	1.760918
1.687500	1.763467
1.688000	1.763148
1.688500	1.759326
1.689000	1.759644
1.689500	1.763785
1.690000	1.760918
1.690500	1.759007
1.691000	1.760600
1.691500	1.763148
1.692000	1.761874
1.692500	1.759963
1.693000	1.761555
1.693500	1.762511
1.694000	1.761237
1.694500	1.761874
1.695000	1.762192
1.695500	1.761555
1.696000	1.760600
1.696500	1.762192
1.697000	1.761874
1.697500	1.760918
1.698000	1.760281
1.698500	1.761555
1.699000	1.761237
1.699500	1.761555
1.700000	1.762192
1.700500	1.761555
1.701000	1.763148
1.701500	1.760918
1.702000	1.764104
1.702500	1.762511
1.703000	1.759644
1.703500	1.760600
1.704000	1.763785
1.704500	1.761874
1.705000	1.758688
1.705500	1.760600
1.706000	1.764104
1.706500	1.761237
1.707000	1.758688
1.707500	1.760918
1.708000	1.763148
1.708500	1.760600
1.709000	1.759644
1.709500	1.761874
1.710000	1.762829
1.710500	1.760600
1.711000	1.760600
1.711500	1.761874
1.712000	1.761555
1.712500	1.759963
1.713000	1.760918
1.713500	1.761237
1.714000	1.761555
1.714500	1.760918
1.715000	1.761555
1.715500	1.761237
1.716000	1.761237
1.716500	1.762829
1.717000	1.762192
1.717500	1.760281
1.718000	1.760918
1.718500	1.763785
1.719000	1.761555
1.719500	1.759007
1.720000	1.760600
1.720500	1.763785
1.721000	1.762192
1.721500	1.759326
1.722000	1.760281
1.722500	1.764741
1.723000	1.762511
1.723500	1.759007
1.724000	1.761237
1.724500	1.763785
1.725000	1.762511
1.725500	1.759326
1.726000	1.761555
1.726500	1.762511
1.727000	1.761237
1.727500	1.760600
1.728000	1.762192
1.728500	1.762192
1.729000	1.760918
1.729500	1.761555
1.730000	1.762192
1.730500	1.761555
1.731000	1.760600
1.731500	1.762511
1.732000	1.761874
1.732500	1.760281
1.733000	1.761874
1.733500	1.761555
1.734000	1.760600
1.734500	1.761237
1.735000	1.762829
1.735500	1.762511
1.736000	1.759326
1.736500	1.760281
1.737000	1.762829
1.737500	1.762511
1.738000	1.758370
1.738500	1.759644
1.739000	1.763785
1.739500	1.761237
1.740000	1.758370
1.740500	1.760600
1.741000	1.763785
1.741500	1.760918
1.742000	1.759326
1.742500	1.760600
1.743000	1.762829
1.743500	1.760918
1.744000	1.759963
1.744500	1.761555
1.745000	1.761237
1.745500	1.760281
1.746000	1.759963
1.746500	1.760918
1.747000	1.760600
1.747500	1.761237
1.748000	1.761237
1.748500	1.760600
1.749000	1.760600
1.749500	1.760918
1.750000	1.761237
1.750500	1.759963
1.751000	1.759644
1.751500	1.762192
1.752000	1.761874
1.752500	1.757733
1.753000	1.760600
1.753500	1.763785
1.754000	1.761555
1.754500	1.758688
1.755000	1.759963
1.755500	1.763467
1.756000	1.760918
1.756500	1.758051
1.757000	1.760600
1.757500	1.762511
1.758000	1.760600
1.758500	1.758688
1.759000	1.760918
1.759500	1.761555
1.760000	1.759644
1.760500	1.759644
1.761000	1.762192
1.761500	1.760281
1.762000	1.760600
1.762500	1.761237
1.763000	1.760918
1.763500	1.759644
1.764000	1.760918
1.764500	1.761555
1.765000	1.760600
1.765500	1.759963
1.766000	1.762511
1.766500	1.761874
1.767000	1.758370
1.767500	1.759963
1.768000	1.763148
1.768500	1.761237
1.769000	1.758370
1.769500	1.759963
1.770000	1.762829
1.770500	1.761555
1.771000	1.757733
1.771500	1.760600
1.772000	1.763467
1.772500	1.761237
1.773000	1.758688
1.773500	1.760281
1.774000	1.762192
1.774500	1.761555
1.775000	1.760281
1.775500	1.761237
1.776000	1.761874
1.776500	1.759644
1.777000	1.759963
1.777500	1.761237
1.778000	1.760600
1.778500	1.760600
1.779000	1.761874
1.779500	1.760281
1.780000	1.760600
1.780500	1.761555
1.781000	1.761555
1.781500	1.760600
1.782000	1.760281
1.782500	1.763785
1.783000	1.761555
1.783500	1.759644
1.784000	1.760600
1.784500	1.763785
1.785000	1.762511
1.785500	1.759326
1.786000	1.760918
1.786500	1.764104
1.787000	1.762511
1.787500	1.759326
1.788000	1.760918
1.788500	1.763467
1.789000	1.762192
1.789500	1.759963
1.790000	1.761874
1.790500	1.762829
1.791000	1.761555
1.791500	1.761237
1.792000	1.761874
1.792500	1.761874
1.793000	1.761555
1.793500	1.761874
1.794000	1.761874
1.794500	1.761237
1.795000	1.761874
1.795500	1.762511
1.796000	1.761555
1.796500	1.761555
1.797000	1.762829
1.797500	1.762511
1.798000	1.759644
1.798500	1.760281
1.799000	1.764422
1.799500	1.762511
1.800000	1.759007
1.800500	1.761237
1.801000	1.764741
1.801500	1.761874
1.802000	1.759644
1.802500	1.760918
1.803000	1.764422
1.803500	1.762192
1.804000	1.758688
1.804500	1.761237
1.805000	1.762511
1.805500	1.761237
1.806000	1.759326
1.806500	1.760918
1.807000	1.760918
1.807500	1.764741
1.808000	1.759963
1.808500	1.761555
1.809000	1.759963
1.809500	1.760281
1.810000	1.760281
1.810500	1.760918
1.811000	1.759963
1.811500	1.760281
1.812000	1.761237
1.812500	1.760281
1.813000	1.759644
1.813500	1.761874
1.814000	1.760600
1.814500	1.758688
1.815000	1.759326
1.815500	1.762511
1.816000	1.761555
1.816500	1.757733
1.817000	1.759326
1.817500	1.763148
1.818000	1.760918
1.818500	1.758051
1.819000	1.759644
1.819500	1.763467
1.820000	1.760281
1.820500	1.758688
1.821000	1.760600
1.821500	1.762829
1.822000	1.760600
1.822500	1.758688
1.823000	1.760281
1.823500	1.761237
1.824000	1.759644
1.824500	1.759963
1.825000	1.760600
1.825500	1.761237
1.826000	1.759644
1.826500	1.760600
1.827000	1.759963
1.827500	1.759963
1.828000	1.760600
1.828500	1.760918
1.829000	1.759007
1.829500	1.759644
1.830000	1.761237
1.830500	1.760918
1.831000	1.758051
1.831500	1.758370
1.832000	1.762829
1.832500	1.759963
1.833000	1.757414
1.833500	1.758688
1.834000	1.762511
1.834500	1.759963
1.835000	1.756459
1.835500	1.759963
1.836000	1.762192
1.836500	1.759963
1.837000	1.758688
1.837500	1.759644
1.838000	1.761237
1.838500	1.759963
1.839000	1.758688
1.839500	1.759963
1.840000	1.760600
1.840500	1.759326
1.841000	1.758370
1.841500	1.759644
1.842000	1.759963
1.842500	1.758688
1.843000	1.759326
1.843500	1.759326
1.844000	1.759007
1.844500	1.760600
1.845000	1.760281
1.845500	1.758370
1.846000	1.758051
1.846500	1.760918
1.847000	1.759326
1.847500	1.756140
1.848000	1.758688
1.848500	1.761555
1.849000	1.760918
1.849500	1.757096
1.850000	1.758688
1.850500	1.762511
1.851000	1.760918
1.851500	1.757414
1.852000	1.759007
1.852500	1.761555
1.853000	1.759644
1.853500	1.758370
1.854000	1.759963
1.854500	1.760600
1.855000	1.759007
1.855500	1.758688
1.856000	1.759963
1.856500	1.759963
1.857000	1.759007
1.857500	1.759644
1.858000	1.759644
1.858500	1.759326
1.859000	1.758688
1.859500	1.759963
1.860000	1.759644
1.860500	1.758370
1.861000	1.760281
1.861500	1.760600
1.862000	1.758688
1.862500	1.758370
1.863000	1.761237
1.863500	1.761237
1.864000	1.758051
1.864500	1.758370
1.865000	1.762192
1.865500	1.760281
1.866000	1.756777
1.866500	1.758688
1.867000	1.761555
1.867500	1.759644
1.868000	1.757414
1.868500	1.759963
1.869000	1.761874
1.869500	1.759007
1.870000	1.758051
1.870500	1.759644
1.871000	1.760918
1.871500	1.759644
1.872000	1.758370
1.872500	1.760600
1.873000	1.759963
1.873500	1.759326
1.874000	1.759326
1.874500	1.760281
1.875000	1.759007
1.875500	1.759007
1.876000	1.759963
1.876500	1.759644
1.877000	1.758688
1.877500	1.760918
1.878000	1.760281
1.878500	1.758051
1.879000	1.759326
1.879500	1.762192
1.880000	1.760600
1.880500	1.757414
1.881000	1.759007
1.881500	1.763467
1.882000	1.761237
1.882500	1.757733
1.883000	1.759963
1.883500	1.762511
1.884000	1.760281
1.884500	1.759007
1.885000	1.759326
1.885500	1.762192
1.886000	1.760281
1.886500	1.758370
1.887000	1.760918
1.887500	1.759963
1.888000	1.759963
1.888500	1.760281
1.889000	1.760281
1.889500	1.759963
1.890000	1.759963
1.890500	1.759963
1.891000	1.760600
1.891500	1.759326
1.892000	1.760281
1.892500	1.760281
1.893000	1.759007
1.893500	1.759007
1.894000	1.760918
1.894500	1.760281
1.895000	1.757733
1.895500	1.758370
1.896000	1.762192
1.896500	1.760281
1.897000	1.757096
1.897500	1.759326
1.898000	1.762511
1.898500	1.759963
1.899000	1.756777
1.899500	1.759326
1.900000	1.762192
1.900500	1.759963
1.901000	1.757733
1.901500	1.759326
1.902000	1.761555
1.902500	1.758688
1.903000	1.758370
1.903500	1.760281
1.904000	1.760918
1.904500	1.759644
1.905000	1.759644
1.905500	1.759963
1.906000	1.759644
1.906500	1.759326
1.907000	1.759963
1.907500	1.760281
1.908000	1.759326
1.908500	1.758688
1.909000	1.760281
1.909500	1.759326
1.910000	1.758370
1.910500	1.761237
1.911000	1.759963
1.911500	1.758370
1.912000	1.759326
1.912500	1.760918
1.913000	1.759963
1.913500	1.757414
1.914000	1.759007
1.914500	1.762511
1.915000	1.760918
1.915500	1.755822
1.916000	1.758370
1.916500	1.761237
1.917000	1.760600
1.917500	1.757096
1.918000	1.759326
1.918500	1.760918
1.919000	1.758688
1.919500	1.758051
1.920000	1.759644
1.920500	1.760918
1.921000	1.758370
1.921500	1.758688
1.922000	1.759326
1.922500	1.759326
1.923000	1.759007
1.923500	1.758688
1.924000	1.759644
1.924500	1.759007
1.925000	1.759007
1.925500	1.759007
1.926000	1.759007
1.926500	1.758688
1.927000	1.760600
1.927500	1.759963
1.928000	1.758051
1.928500	1.758051
1.929000	1.760600
1.929500	1.759644
1.930000	1.756777
1.930500	1.758051
1.931000	1.761874
1.931500	1.760281
1.932000	1.755503
1.932500	1.758370
1.933000	1.761237
1.933500	1.760281
1.934000	1.757096
1.934500	1.759326
1.935000	1.761555
1.935500	1.758688
1.936000	1.758051
1.936500	1.759644
1.937000	1.760281
1.937500	1.758370
1.938000	1.758688
1.938500	1.759326
1.939000	1.758370
1.939500	1.759644
1.940000	1.759007
1.940500	1.759007
1.941000	1.758370
1.941500	1.759644
1.942000	1.759326
1.942500	1.757733
1.943000	1.758370
1.943500	1.759963
1.944000	1.760600
1.944500	1.757096
1.945000	1.758051
1.945500	1.761237
1.946000	1.760600
1.946500	1.755503
1.947000	1.758051
1.947500	1.760281
1.948000	1.759326
1.948500	1.756140
1.949000	1.757733
1.949500	1.761555
1.950000	1.759007
1.950500	1.757733
1.951000	1.758688
1.951500	1.760918
1.952000	1.758688
1.952500	1.758370
1.953000	1.759326
1.953500	1.760281
1.954000	1.759007
1.954500	1.759644
1.955000	1.760281
1.955500	1.759963
1.956000	1.759326
1.956500	1.759644
1.957000	1.759963
1.957500	1.758688
1.958000	1.759963
1.958500	1.759326
1.959000	1.759326
1.959500	1.759326
1.960000	1.760600
1.960500	1.760918
1.961000	1.758051
1.961500	1.759644
1.962000	1.763785
1.962500	1.759963
1.963000	1.757414
1.963500	1.758688
1.964000	1.762511
1.964500	1.760600
1.965000	1.756459
1.965500	1.759963
1.966000	1.761874
1.966500	1.760600
1.967000	1.758051
1.967500	1.759644
1.968000	1.762192
1.968500	1.759644
1.969000	1.757733
1.969500	1.759963
1.970000	1.760281
1.970500	1.759326
1.971000	1.758370
1.971500	1.760918
1.972000	1.759644
1.972500	1.759007
1.973000	1.759644
1.973500	1.760281
1.974000	1.759644
1.974500	1.759644
1.975000	1.760281
1.975500	1.759326
1.976000	1.760600
1.976500	1.760281
1.977000	1.761237
1.977500	1.758370
1.978000	1.758688
1.978500	1.761555
1.979000	1.760600
1.979500	1.757414
1.980000	1.759644
1.980500	1.762511
1.981000	1.760600
1.981500	1.757096
1.982000	1.759644
1.982500	1.763148
1.983000	1.759963
1.983500	1.758051
1.984000	1.759326
1.984500	1.762192
1.985000	1.759644
1.985500	1.758688
1.986000	1.760600
1.986500	1.761237
1.987000	1.759326
1.987500	1.759326
1.988000	1.760281
1.988500	1.759644
1.989000	1.759644
1.989500	1.759644
1.990000	1.760281
1.990500	1.759644
1.991000	1.759644
1.991500	1.759963
1.992000	1.759644
1.992500	1.759326
1.993000	1.759963
1.993500	1.761555
1.994000	1.759007
1.994500	1.759326
1.995000	1.760918
1.995500	1.760918
1.996000	1.757733
1.996500	1.759007
1.997000	1.761874
1.997500	1.759963
1.998000	1.756777
1.998500	1.758688
1.999000	1.762192
1.999500	1.759963
2.000000	1.756777
2.000500	1.759644
2.001000	1.762511
2.001500	1.759644
2.002000	1.759326
2.002500	1.760281
2.003000	1.760918
2.003500	1.759963
2.004000	1.759644
2.004500	1.759963
2.005000	1.760600
2.005500	1.760281
2.006000	1.761237
2.006500	1.760600
2.007000	1.760281
2.007500	1.760600
2.008000	1.760918
2.008500	1.761237
2.009000	1.759963
2.009500	1.760918
2.010000	1.760281
2.010500	1.760281
2.011000	1.759007
2.011500	1.761555
2.012000	1.761237
2.012500	1.759644
2.013000	1.759007
2.013500	1.762192
2.014000	1.760600
2.014500	1.757733
2.015000	1.760600
2.015500	1.762829
2.016000	1.760600
2.016500	1.756777
2.017000	1.759963
2.017500	1.763148
2.018000	1.759644
2.018500	1.757096
2.019000	1.759007
2.019500	1.761555
2.020000	1.760281
2.020500	1.757733
2.021000	1.759963
2.021500	1.761237
2.022000	1.759326
2.022500	1.759007
2.023000	1.760600
2.023500	1.760918
2.024000	1.759644
2.024500	1.760918
2.025000	1.760918
2.025500	1.760600
2.026000	1.759963
2.026500	1.759644
2.027000	1.760281
2.027500	1.759644
2.028000	1.759963
2.028500	1.759963
2.029000	1.759326
2.029500	1.759326
2.030000	1.762192
2.030500	1.760918
2.031000	1.758051
2.031500	1.759644
2.032000	1.763467
2.032500	1.761555
2.033000	1.757414
2.033500	1.759007
2.034000	1.762829
2.034500	1.760918
2.035000	1.757096
2.035500	1.759007
2.036000	1.762511
2.036500	1.759963
2.037000	1.757733
2.037500	1.760281
2.038000	1.761874
2.038500	1.760281
2.039000	1.758688
2.039500	1.760281
2.040000	1.761874
2.040500	1.760281
2.041000	1.759644
2.041500	1.761237
2.042000	1.760600
2.042500	1.759326
2.043000	1.759326
2.043500	1.760918
2.044000	1.759644
2.044500	1.759963
2.045000	1.759644
2.045500	1.760281
2.046000	1.759007
2.046500	1.760600
2.047000	1.759963
2.047500	1.759007
2.048000	1.759007
2.048500	1.762192
2.049000	1.761237
2.049500	1.758051
2.050000	1.759644
2.050500	1.762511
2.051000	1.761237
2.051500	1.758370
2.052000	1.759644
2.052500	1.763785
2.053000	1.760918
2.053500	1.757733
2.054000	1.760918
2.054500	1.762829
2.055000	1.760918
2.055500	1.758370
2.056000	1.760600
2.056500	1.762511
2.057000	1.761237
2.057500	1.759963
2.058000	1.760281
2.058500	1.761555
2.059000	1.760600
2.059500	1.760281
2.060000	1.762192
2.060500	1.760281
2.061000	1.759644
2.061500	1.760600
2.062000	1.760281
2.062500	1.759963
2.063000	1.760281
2.063500	1.760918
2.064000	1.760600
2.064500	1.759963
2.065000	1.761555
2.065500	1.761874
2.066000	1.758688
2.066500	1.759963
2.067000	1.763148
2.067500	1.760918
2.068000	1.758370
2.068500	1.759644
2.069000	1.763148
2.069500	1.761555
2.070000	1.758688
2.070500	1.759326
2.071000	1.762829
2.071500	1.760918
2.072000	1.758688
2.072500	1.760281
2.073000	1.762511
2.073500	1.760600
2.074000	1.759644
2.074500	1.760918
2.075000	1.761874
2.075500	1.760281
2.076000	1.759644
2.076500	1.760600
2.077000	1.761555
2.077500	1.760600
2.078000	1.759644
2.078500	1.760918
2.079000	1.760918
2.079500	1.760600
2.080000	1.760281
2.080500	1.760600
2.081000	1.759644
2.081500	1.760918
2.082000	1.760600
2.082500	1.760281
2.083000	1.759644
2.083500	1.761555
2.084000	1.762511
2.084500	1.758688
2.085000	1.759007
2.085500	1.762511
2.086000	1.761874
2.086500	1.758051
2.087000	1.759963
2.087500	1.764104
2.088000	1.760918
2.088500	1.758051
2.089000	1.759963
2.089500	1.763785
2.090000	1.760918
2.090500	1.758370
2.091000	1.760281
2.091500	1.763148
2.092000	1.760600
2.092500	1.759963
2.093000	1.760918
2.093500	1.761874
2.094000	1.760918
2.094500	1.759963
2.095000	1.761555
2.095500	1.761237
2.096000	1.760918
2.096500	1.762192
2.097000	1.761237
2.097500	1.760281
2.098000	1.761555
2.098500	1.761237
2.099000	1.760281
2.099500	1.760281
2.100000	1.762192
2.100500	1.762192
2.101000	1.758688
2.101500	1.760918
2.102000	1.763467
2.102500	1.761874
2.103000	1.759007
2.103500	1.759963
2.104000	1.763785
2.104500	1.761874
2.105000	1.758370
2.105500	1.759963
2.106000	1.763148
2.106500	1.760600
2.107000	1.758370
2.107500	1.760918
2.108000	1.763467
2.108500	1.760600
2.109000	1.758688
2.109500	1.761555
2.110000	1.761555
2.110500	1.759963
2.111000	1.760600
2.111500	1.761874
2.112000	1.760281
2.112500	1.760600
2.113000	1.760600
2.113500	1.760918
2.114000	1.760600
2.114500	1.761237
2.115000	1.761237
2.115500	1.760600
2.116000	1.759963
2.116500	1.762192
2.117000	1.761874
2.117500	1.759644
2.118000	1.759963
2.118500	1.762829
2.119000	1.761874
2.119500	1.759326
2.120000	1.759644
2.120500	1.763467
2.121000	1.761874
2.121500	1.758688
2.122000	1.760600
2.122500	1.763467
2.123000	1.761237
2.123500	1.758051
2.124000	1.760600
2.124500	1.762511
2.125000	1.760600
2.125500	1.759007
2.126000	1.759644
2.126500	1.762192
2.127000	1.759963
2.127500	1.759644
2.128000	1.760600
2.128500	1.760918
2.129000	1.760281
2.129500	1.759644
2.130000	1.760918
2.130500	1.759644
2.131000	1.759326
2.131500	1.759644
2.132000	1.760600
2.132500	1.759326
2.133000	1.760600
2.133500	1.760281
2.134000	1.758370
2.134500	1.759326
2.135000	1.761874
2.135500	1.760281
2.136000	1.757733
2.136500	1.758688
2.137000	1.762511
2.137500	1.761237
2.138000	1.758051
2.138500	1.759007
2.139000	1.762511
2.139500	1.760281
2.140000	1.757096
2.140500	1.759326
2.141000	1.762192
2.141500	1.759963
2.142000	1.757733
2.142500	1.759644
2.143000	1.761237
2.143500	1.759326
2.144000	1.758688
2.144500	1.759963
2.145000	1.760281
2.145500	1.759007
2.146000	1.759007
2.146500	1.760281
2.147000	1.760281
2.147500	1.759326
2.148000	1.760281
2.148500	1.759963
2.149000	1.759963
2.149500	1.759963
2.150000	1.760281
2.150500	1.758688
2.151000	1.759007
2.151500	1.761555
2.152000	1.760281
2.152500	1.757733
2.153000	1.759007
2.153500	1.760918
2.154000	1.761237
2.154500	1.757733
2.155000	1.759007
2.155500	1.762511
2.156000	1.761555
2.156500	1.757414
2.157000	1.759644
2.157500	1.763148
2.158000	1.760600
2.158500	1.758051
2.159000	1.758688
2.159500	1.761874
2.160000	1.759963
2.160500	1.757733
2.161000	1.760600
2.161500	1.761555
2.162000	1.759007
2.162500	1.759007
2.163000	1.760600
2.163500	1.760600
2.164000	1.759644
2.164500	1.760281
2.165000	1.759963
2.165500	1.760281
2.166000	1.759963
2.166500	1.760281
2.167000	1.759963
2.167500	1.760918
2.168000	1.759644
2.168500	1.759963
2.169000	1.759644
2.169500	1.758370
2.170000	1.760918
2.170500	1.760600
2.171000	1.758370
2.171500	1.759644
2.172000	1.761874
2.172500	1.760600
2.173000	1.757733
2.173500	1.759644
2.174000	1.761874
2.174500	1.760600
2.175000	1.757096
2.175500	1.758688
2.176000	1.761874
2.176500	1.760600
2.177000	1.757414
2.177500	1.758688
2.178000	1.762511
2.178500	1.759644
2.179000	1.757733
2.179500	1.759326
2.180000	1.761237
2.180500	1.759963
2.181000	1.758688
2.181500	1.759644
2.182000	1.760918
2.182500	1.759007
2.183000	1.759963
2.183500	1.759963
2.184000	1.759007
2.184500	1.759644
2.185000	1.759644
2.185500	1.761237
2.186000	1.759326
2.186500	1.759963
2.187000	1.760281
2.187500	1.758688
2.188000	1.759644
2.188500	1.760918
2.189000	1.760600
2.189500	1.759007
2.190000	1.759007
2.190500	1.762511
2.191000	1.761237
2.191500	1.757414
2.192000	1.759326
2.192500	1.762829
2.193000	1.760918
2.193500	1.757414
2.194000	1.759963
2.194500	1.762511
2.195000	1.759963
2.195500	1.758370
2.196000	1.759963
2.196500	1.761237
2.197000	1.760600
2.197500	1.759007
2.198000	1.761237
2.198500	1.760918
2.199000	1.760918
2.199500	1.759963
2.200000	1.760600
2.200500	1.760600
2.201000	1.759963
2.201500	1.760600
2.202000	1.759963
2.202500	1.760600
2.203000	1.761237
2.203500	1.760918
2.204000	1.759644
2.204500	1.759963
2.205000	1.762192
2.205500	1.761874
2.206000	1.759326
2.206500	1.759644
2.207000	1.763148
2.207500	1.762192
2.208000	1.759326
2.208500	1.759963
2.209000	1.763467
2.209500	1.761874
2.210000	1.758688
2.210500	1.760600
2.211000	1.763785
2.211500	1.760918
2.212000	1.759326
2.212500	1.760600
2.213000	1.762829
2.213500	1.760918
2.214000	1.760281
2.214500	1.761555
2.215000	1.761237
2.215500	1.760281
2.216000	1.760918
2.216500	1.761874
2.217000	1.761555
2.217500	1.760600
2.218000	1.760918
2.218500	1.761555
2.219000	1.760600
2.219500	1.761237
2.220000	1.761237
2.220500	1.759963
2.221000	1.760600
2.221500	1.761237
2.222000	1.761237
2.222500	1.760600
2.223000	1.759963
2.223500	1.762829
2.224000	1.762192
2.224500	1.758688
2.225000	1.760281
2.225500	1.763467
2.226000	1.761555
2.226500	1.758051
2.227000	1.760281
2.227500	1.762829
2.228000	1.760600
2.228500	1.757096
2.229000	1.759963
2.229500	1.763785
2.230000	1.761237
2.230500	1.759326
2.231000	1.761555
2.231500	1.761555
2.232000	1.759326
2.232500	1.759644
2.233000	1.760600
2.233500	1.761874
2.234000	1.760281
2.234500	1.759963
2.235000	1.761555
2.235500	1.760600
2.236000	1.759963
2.236500	1.761237
2.237000	1.760600
2.237500	1.760600
2.238000	1.760281
2.238500	1.761555
2.239000	1.760281
2.239500	1.760918
2.240000	1.760600
2.240500	1.760600
2.241000	1.759326
2.241500	1.759644
2.242000	1.761874
2.242500	1.761237
2.243000	1.757733
2.243500	1.759644
2.244000	1.762511
2.244500	1.761555
2.245000	1.758688
2.245500	1.760281
2.246000	1.762192
2.246500	1.760600
2.247000	1.757414
2.247500	1.760281
2.248000	1.763148
2.248500	1.760918
2.249000	1.758688
2.249500	1.759963
2.250000	1.762192
2.250500	1.761555
2.251000	1.759007
2.251500	1.761237
2.252000	1.761237
2.252500	1.760281
2.253000	1.759326
2.253500	1.761237
2.254000	1.761555
2.254500	1.760600
2.255000	1.760600
2.255500	1.761237
2.256000	1.760600
2.256500	1.761237
2.257000	1.761555
2.257500	1.760600
2.258000	1.759644
2.258500	1.760918
2.259000	1.761237
2.259500	1.758688
2.260000	1.759963
2.260500	1.762511
2.261000	1.762192
2.261500	1.758370
2.262000	1.759963
2.262500	1.763148
2.263000	1.761555
2.263500	1.757733
2.264000	1.760600
2.264500	1.763785
2.265000	1.761874
2.265500	1.758051
2.266000	1.760918
2.266500	1.763467
2.267000	1.761237
2.267500	1.758370
2.268000	1.760918
2.268500	1.762511
2.269000	1.761237
2.269500	1.758688
2.270000	1.760600
2.270500	1.761237
2.271000	1.760281
2.271500	1.759644
2.272000	1.761555
2.272500	1.760600
2.273000	1.759963
2.273500	1.759963
2.274000	1.760281
2.274500	1.760918
2.275000	1.760600
2.275500	1.761237
2.276000	1.759644
2.276500	1.759963
2.277000	1.761237
2.277500	1.760918
2.278000	1.758688
2.278500	1.758688
2.279000	1.762511
2.279500	1.761237
2.280000	1.757733
2.280500	1.762192
2.281000	1.762511
2.281500	1.761874
2.282000	1.758051
2.282500	1.758688
2.283000	1.762829
2.283500	1.761555
2.284000	1.757096
2.284500	1.759326
2.285000	1.761874
2.285500	1.760918
2.286000	1.757414
2.286500	1.759644
2.287000	1.761874
2.287500	1.758688
2.288000	1.758370
2.288500	1.760281
2.289000	1.761237
2.289500	1.760281
2.290000	1.759326
2.290500	1.761555
2.291000	1.760600
2.291500	1.759963
2.292000	1.760281
2.292500	1.760918
2.293000	1.760281
2.293500	1.760918
2.294000	1.759963
2.294500	1.761237
2.295000	1.760281
2.295500	1.761237
2.296000	1.762192
2.296500	1.760281
2.297000	1.759963
2.297500	1.762829
2.298000	1.762192
2.298500	1.759326
2.299000	1.760918
2.299500	1.764422
2.300000	1.761874
2.300500	1.758051
2.301000	1.760918
2.301500	1.763785
2.302000	1.761555
2.302500	1.758688
2.303000	1.761237
2.303500	1.764741
2.304000	1.761874
2.304500	1.759326
2.305000	1.760918
2.305500	1.763785
2.306000	1.761555
2.306500	1.759963
2.307000	1.761237
2.307500	1.763148
2.308000	1.760918
2.308500	1.760281
2.309000	1.761555
2.309500	1.761555
2.310000	1.761237
2.310500	1.761237
2.311000	1.762192
2.311500	1.761237
2.312000	1.761237
2.312500	1.761555
2.313000	1.759963
2.313500	1.760918
2.314000	1.762511
2.314500	1.761874
2.315000	1.759963
2.315500	1.760281
2.316000	1.764422
2.316500	1.762511
2.317000	1.759326
2.317500	1.760281
2.318000	1.765059
2.318500	1.762829
2.319000	1.759007
2.319500	1.760600
2.320000	1.763785
2.320500	1.761237
2.321000	1.759326
2.321500	1.760600
2.322000	1.763467
2.322500	1.761237
2.323000	1.759644
2.323500	1.761237
2.324000	1.761874
2.324500	1.760600
2.325000	1.759963
2.325500	1.761874
2.326000	1.761237
2.326500	1.760918
2.327000	1.760600
2.327500	1.761237
2.328000	1.760918
2.328500	1.760918
2.329000	1.760918
2.329500	1.761237
2.330000	1.759644
2.330500	1.760918
2.331000	1.761237
2.331500	1.760281
2.332000	1.759963
2.332500	1.761555
2.333000	1.761237
2.333500	1.759007
2.334000	1.760918
2.334500	1.762829
2.335000	1.760918
2.335500	1.758051
2.336000	1.758688
2.336500	1.763467
2.337000	1.760918
2.337500	1.758051
2.338000	1.759963
2.338500	1.763467
2.339000	1.760918
2.339500	1.758370
2.340000	1.759963
2.340500	1.762829
2.341000	1.759326
2.341500	1.759644
2.342000	1.760600
2.342500	1.761237
2.343000	1.759963
2.343500	1.759007
2.344000	1.760600
2.344500	1.760918
2.345000	1.760281
2.345500	1.760281
2.346000	1.760281
2.346500	1.759963
2.347000	1.759644
2.347500	1.759326
2.348000	1.759326
2.348500	1.759326
2.349000	1.760600
2.349500	1.760600
2.350000	1.758370
2.350500	1.759326
2.351000	1.762192
2.351500	1.760600
2.352000	1.757414
2.352500	1.759007
2.353000	1.762829
2.353500	1.761555
2.354000	1.757733
2.354500	1.759963
2.355000	1.764104
2.355500	1.760600
2.356000	1.757733
2.356500	1.760281
2.357000	1.761237
2.357500	1.760281
2.358000	1.759326
2.358500	1.760600
2.359000	1.762192
2.359500	1.760281
2.360000	1.760281
2.360500	1.761555
2.361000	1.761555
2.361500	1.760600
2.362000	1.760600
2.362500	1.760918
2.363000	1.761237
2.363500	1.761237
2.364000	1.761237
2.364500	1.760600
2.365000	1.759963
2.365500	1.762511
2.366000	1.760918
2.366500	1.759963
2.367000	1.759963
2.367500	1.761237
2.368000	1.760918
2.368500	1.758370
2.369000	1.759644
2.369500	1.763148
2.370000	1.760600
2.370500	1.758051
2.371000	1.759326
2.371500	1.763467
2.372000	1.761555
2.372500	1.757733
2.373000	1.759644
2.373500	1.762829
2.374000	1.760600
2.374500	1.758688
2.375000	1.760600
2.375500	1.762829
2.376000	1.759644
2.376500	1.759963
2.377000	1.760918
2.377500	1.760281
2.378000	1.759963
2.378500	1.760600
2.379000	1.761555
2.379500	1.760600
2.380000	1.760281
2.380500	1.759644
2.381000	1.760918
2.381500	1.760918
2.382000	1.760918
2.382500	1.762192
2.383000	1.760918
2.383500	1.760281
2.384000	1.762511
2.384500	1.762511
2.385000	1.759644
2.385500	1.760281
2.386000	1.763467
2.386500	1.763148
2.387000	1.758688
2.387500	1.761555
2.388000	1.764741
2.388500	1.762511
2.389000	1.759007
2.389500	1.760918
2.390000	1.763785
2.390500	1.761555
2.391000	1.759326
2.391500	1.761555
2.392000	1.763467
2.392500	1.761555
2.393000	1.760918
2.393500	1.761874
2.394000	1.762829
2.394500	1.760600
2.395000	1.760918
2.395500	1.761555
2.396000	1.761555
2.396500	1.761237
2.397000	1.761555
2.397500	1.761874
2.398000	1.761237
2.398500	1.761237
2.399000	1.761555
2.399500	1.760281
2.400000	1.760600
2.400500	1.762192
2.401000	1.762511
2.401500	1.760600
2.402000	1.760600
2.402500	1.762511
2.403000	1.761555
2.403500	1.759326
2.404000	1.760281
2.404500	1.764741
2.405000	1.762511
2.405500	1.758688
2.406000	1.760600
2.406500	1.763467
2.407000	1.761874
2.407500	1.759326
2.408000	1.761237
2.408500	1.764422
2.409000	1.762192
2.409500	1.759644
2.410000	1.762192
2.410500	1.763467
2.411000	1.761555
2.411500	1.761555
2.412000	1.762511
2.412500	1.762829
2.413000	1.760918
2.413500	1.761237
2.414000	1.763148
2.414500	1.762511
2.415000	1.761555
2.415500	1.762511
2.416000	1.761874
2.416500	1.761555
2.417000	1.762192
2.417500	1.762829
2.418000	1.761874
2.418500	1.760918
2.419000	1.762829
2.419500	1.762829
2.420000	1.761237
2.420500	1.761555
2.421000	1.764741
2.421500	1.762829
2.422000	1.758688
2.422500	1.761237
2.423000	1.765378
2.423500	1.763148
2.424000	1.759644
2.424500	1.761555
2.425000	1.765059
2.425500	1.762511
2.426000	1.759963
2.426500	1.761555
2.427000	1.763467
2.427500	1.762192
2.428000	1.760281
2.428500	1.761874
2.429000	1.762192
2.429500	1.761237
2.430000	1.760281
2.430500	1.761555
2.431000	1.761237
2.431500	1.761874
2.432000	1.761237
2.432500	1.762192
2.433000	1.761237
2.433500	1.761555
2.434000	1.762511
2.434500	1.760918
2.435000	1.760918
2.435500	1.763148
2.436000	1.763148
2.436500	1.759963
2.437000	1.760918
2.437500	1.764104
2.438000	1.762511
2.438500	1.759326
2.439000	1.760918
2.439500	1.764741
2.440000	1.761874
2.440500	1.760281
2.441000	1.761237
2.441500	1.765059
2.442000	1.761874
2.442500	1.760281
2.443000	1.761874
2.443500	1.764104
2.444000	1.761555
2.444500	1.760918
2.445000	1.763148
2.445500	1.762829
2.446000	1.761555
2.446500	1.761555
2.447000	1.762829
2.447500	1.762192
2.448000	1.761555
2.448500	1.762511
2.449000	1.762511
2.449500	1.761237
2.450000	1.762192
2.450500	1.762829
2.451000	1.760281
2.451500	1.760281
2.452000	1.763148
2.452500	1.762192
2.453000	1.759644
2.453500	1.760281
2.454000	1.763785
2.454500	1.761874
2.455000	1.758370
2.455500	1.760918
2.456000	1.764741
2.456500	1.762511
2.457000	1.758370
2.457500	1.760918
2.458000	1.763785
2.458500	1.761555
2.459000	1.758370
2.459500	1.761237
2.460000	1.763467
2.460500	1.761237
2.461000	1.758688
2.461500	1.759963
2.462000	1.762511
2.462500	1.760918
2.463000	1.759326
2.463500	1.761555
2.464000	1.761555
2.464500	1.760281
2.465000	1.760281
2.465500	1.761237
2.466000	1.760600
2.466500	1.760600
2.467000	1.760281
2.467500	1.760918
2.468000	1.759963
2.468500	1.760918
2.469000	1.760281
2.469500	1.759007
2.470000	1.759326
2.470500	1.761555
2.471000	1.760600
2.471500	1.757733
2.472000	1.759326
2.472500	1.761555
2.473000	1.760281
2.473500	1.757414
2.474000	1.759326
2.474500	1.763148
2.475000	1.760600
2.475500	1.757414
2.476000	1.759644
2.476500	1.762511
2.477000	1.759963
2.477500	1.757096
2.478000	1.760281
2.478500	1.761874
2.479000	1.760281
2.479500	1.759007
2.480000	1.760281
2.480500	1.759963
2.481000	1.759007
2.481500	1.759326
2.482000	1.760281
2.482500	1.759963
2.483000	1.759007
2.483500	1.760281
2.484000	1.759963
2.484500	1.759007
2.485000	1.759963
2.485500	1.759644
2.486000	1.759007
2.486500	1.759007
2.487000	1.761874
2.487500	1.761555
2.488000	1.758051
2.488500	1.759326
2.489000	1.763148
2.489500	1.760281
2.490000	1.757414
2.490500	1.758051
2.491000	1.763148
2.491500	1.761555
2.492000	1.758370
2.492500	1.759963
2.493000	1.762511
2.493500	1.760918
2.494000	1.758370
2.494500	1.760600
2.495000	1.761874
2.495500	1.760918
2.496000	1.759644
2.496500	1.760600
2.497000	1.761555
2.497500	1.760281
2.498000	1.760281
2.498500	1.761237
2.499000	1.760918
2.499500	1.760281
2.500000	1.760918
2.500500	1.761555
2.501000	1.760918
2.501500	1.762192
2.502000	1.761237
2.502500	1.761555
2.503000	1.760918
2.503500	1.762511
2.504000	1.762511
2.504500	1.759963
2.505000	1.760281
2.505500	1.763785
2.506000	1.762511
2.506500	1.759007
2.507000	1.761237
2.507500	1.765059
2.508000	1.762192
2.508500	1.759326
2.509000	1.760918
2.509500	1.764104
2.510000	1.762192
2.510500	1.758688
2.511000	1.760918
2.511500	1.764104
2.512000	1.761555
2.512500	1.760600
2.513000	1.761874
2.513500	1.763148
2.514000	1.761555
2.514500	1.761237
2.515000	1.762829
2.515500	1.762192
2.516000	1.761555
2.516500	1.761237
2.517000	1.761555
2.517500	1.761555
2.518000	1.761237
2.518500	1.761237
2.519000	1.761237
2.519500	1.760281
2.520000	1.762511
2.520500	1.762511
2.521000	1.759963
2.521500	1.761237
2.522000	1.762829
2.522500	1.761555
2.523000	1.759644
2.523500	1.760281
2.524000	1.763785
2.524500	1.762511
2.525000	1.758688
2.525500	1.760600
2.526000	1.764741
2.526500	1.761874
2.527000	1.758370
2.527500	1.760600
2.528000	1.762511
2.528500	1.760600
2.529000	1.759644
2.529500	1.760918
2.530000	1.761874
2.530500	1.760918
2.531000	1.760600
2.531500	1.761237
2.532000	1.760918
2.532500	1.760281
2.533000	1.761237
2.533500	1.761874
2.534000	1.760918
2.534500	1.761237
2.535000	1.761237
2.535500	1.760600
2.536000	1.760918
2.536500	1.761555
2.537000	1.762829
2.537500	1.759963
2.538000	1.759644
2.538500	1.763785
2.539000	1.761874
2.539500	1.759326
2.540000	1.759644
2.540500	1.762829
2.541000	1.761555
2.541500	1.759007
2.542000	1.759326
2.542500	1.764104
2.543000	1.761555
2.543500	1.758370
2.544000	1.760281
2.544500	1.764104
2.545000	1.761874
2.545500	1.758688
2.546000	1.760918
2.546500	1.761555
2.547000	1.764741
2.547500	1.759326
2.548000	1.761555
2.548500	1.762511
2.549000	1.760600
2.549500	1.760600
2.550000	1.761237
2.550500	1.761237
2.551000	1.760281
2.551500	1.760600
2.552000	1.761555
2.552500	1.760918
2.553000	1.760918
2.553500	1.760918
2.554000	1.760600
2.554500	1.761555
2.555000	1.761555
2.555500	1.761874
2.556000	1.760600
2.556500	1.760281
2.557000	1.762511
2.557500	1.762511
2.558000	1.758688
2.558500	1.759644
2.559000	1.763467
2.559500	1.762192
2.560000	1.758370
2.560500	1.760600
2.561000	1.764104
2.561500	1.761874
2.562000	1.759007
2.562500	1.760281
2.563000	1.764104
2.563500	1.761555
2.564000	1.760281
2.564500	1.761237
2.565000	1.763467
2.565500	1.761874
2.566000	1.760281
2.566500	1.761555
2.567000	1.761555
2.567500	1.760918
2.568000	1.761555
2.568500	1.762511
2.569000	1.761237
2.569500	1.760918
2.570000	1.761874
2.570500	1.761237
2.571000	1.761874
2.571500	1.761555
2.572000	1.762192
2.572500	1.760918
2.573000	1.760600
2.573500	1.762511
2.574000	1.762511
2.574500	1.759644
2.575000	1.760918
2.575500	1.763148
2.576000	1.762192
2.576500	1.759007
2.577000	1.760600
2.577500	1.764422
2.578000	1.761555
2.578500	1.758688
2.579000	1.760600
2.579500	1.763467
2.580000	1.760918
2.580500	1.759644
2.581000	1.761555
2.581500	1.763467
2.582000	1.760600
2.582500	1.760600
2.583000	1.760918
2.583500	1.761874
2.584000	1.760281
2.584500	1.760281
2.585000	1.761237
2.585500	1.760600
2.586000	1.760600
2.586500	1.760600
2.587000	1.761237
2.587500	1.761555
2.588000	1.760918
2.588500	1.761874
2.589000	1.760918
2.589500	1.759644
2.590000	1.760918
2.590500	1.761555
2.591000	1.759007
2.591500	1.760918
2.592000	1.763148
2.592500	1.761555
2.593000	1.758688
2.593500	1.759326
2.594000	1.763785
2.594500	1.761874
2.595000	1.758370
2.595500	1.759326
2.596000	1.763467
2.596500	1.761555
2.597000	1.758370
2.597500	1.760600
2.598000	1.762511
2.598500	1.760600
2.599000	1.759644
2.599500	1.760600
2.600000	1.761555
2.600500	1.759963
2.601000	1.759963
2.601500	1.761237
2.602000	1.760918
2.602500	1.760918
2.603000	1.760600
2.603500	1.761237
2.604000	1.760600
2.604500	1.760600
2.605000	1.760918
2.605500	1.761237
2.606000	1.760918
2.606500	1.762192
2.607000	1.761874
2.607500	1.759644
2.608000	1.760600
2.608500	1.763467
2.609000	1.762192
2.609500	1.759644
2.610000	1.759644
2.610500	1.763467
2.611000	1.760918
2.611500	1.758370
2.612000	1.760918
2.612500	1.764741
2.613000	1.762192
2.613500	1.759007
2.614000	1.761555
2.614500	1.763785
2.615000	1.762511
2.615500	1.759644
2.616000	1.762192
2.616500	1.763148
2.617000	1.762192
2.617500	1.760281
2.618000	1.761874
2.618500	1.761237
2.619000	1.761237
2.619500	1.760918
2.620000	1.761874
2.620500	1.761874
2.621000	1.760918
2.621500	1.761874
2.622000	1.761555
2.622500	1.760918
2.623000	1.762829
2.623500	1.761555
2.624000	1.761237
2.624500	1.759963
2.625000	1.763148
2.625500	1.762192
2.626000	1.759644
2.626500	1.760600
2.627000	1.763467
2.627500	1.762192
2.628000	1.759007
2.628500	1.760918
2.629000	1.764422
2.629500	1.762192
2.630000	1.759963
2.630500	1.761237
2.631000	1.764422
2.631500	1.761555
2.632000	1.759644
2.632500	1.762192
2.633000	1.763785
2.633500	1.761555
2.634000	1.761555
2.634500	1.763148
2.635000	1.762829
2.635500	1.761555
2.636000	1.762192
2.636500	1.763148
2.637000	1.762511
2.637500	1.761555
2.638000	1.762511
2.638500	1.762511
2.639000	1.762192
2.639500	1.762511
2.640000	1.763148
2.640500	1.760600
2.641000	1.761874
2.641500	1.763148
2.642000	1.763467
2.642500	1.760281
2.643000	1.761237
2.643500	1.764104
2.644000	1.763467
2.644500	1.759644
2.645000	1.761237
2.645500	1.764741
2.646000	1.763148
2.646500	1.759326
2.647000	1.762192
2.647500	1.764422
2.648000	1.762511
2.648500	1.759963
2.649000	1.762511
2.649500	1.763785
2.650000	1.762192
2.650500	1.760918
2.651000	1.762511
2.651500	1.763785
2.652000	1.761555
2.652500	1.761874
2.653000	1.762829
2.653500	1.762829
2.654000	1.761555
2.654500	1.761555
2.655000	1.762511
2.655500	1.762511
2.656000	1.762192
2.656500	1.762511
2.657000	1.761237
2.657500	1.761555
2.658000	1.763467
2.658500	1.763467
2.659000	1.760600
2.659500	1.761237
2.660000	1.764104
2.660500	1.762829
2.661000	1.759326
2.661500	1.761237
2.662000	1.764741
2.662500	1.762192
2.663000	1.759007
2.663500	1.761237
2.664000	1.764422
2.664500	1.762511
2.665000	1.760600
2.665500	1.761874
2.666000	1.763467
2.666500	1.761874
2.667000	1.761555
2.667500	1.762192
2.668000	1.761874
2.668500	1.762511
2.669000	1.761874
2.669500	1.762829
2.670000	1.762192
2.670500	1.761874
2.671000	1.762192
2.671500	1.762511
2.672000	1.762192
2.672500	1.762511
2.673000	1.762511
2.673500	1.761874
2.674000	1.761237
2.674500	1.763467
2.675000	1.762511
2.675500	1.760600
2.676000	1.760600
2.676500	1.763785
2.677000	1.762511
2.677500	1.758688
2.678000	1.760600
2.678500	1.764741
2.679000	1.762192
2.679500	1.758688
2.680000	1.761237
2.680500	1.763785
2.681000	1.761874
2.681500	1.759644
2.682000	1.761874
2.682500	1.762829
2.683000	1.761237
2.683500	1.760281
2.684000	1.761874
2.684500	1.761237
2.685000	1.760600
2.685500	1.761237
2.686000	1.760918
2.686500	1.760918
2.687000	1.760600
2.687500	1.761237
2.688000	1.761874
2.688500	1.760600
2.689000	1.761237
2.689500	1.761555
2.690000	1.760281
2.690500	1.760600
2.691000	1.762511
2.691500	1.761555
2.692000	1.759644
2.692500	1.759963
2.693000	1.763148
2.693500	1.762511
2.694000	1.759326
2.694500	1.760918
2.695000	1.763467
2.695500	1.762511
2.696000	1.758688
2.696500	1.759326
2.697000	1.763148
2.697500	1.760918
2.698000	1.759007
2.698500	1.760600
2.699000	1.762829
2.699500	1.760918
2.700000	1.759644
2.700500	1.760918
2.701000	1.762829
2.701500	1.760600
2.702000	1.761237
2.702500	1.762192
2.703000	1.762192
2.703500	1.761237
2.704000	1.760918
2.704500	1.761555
2.705000	1.761237
2.705500	1.760600
2.706000	1.761874
2.706500	1.761237
2.707000	1.761237
2.707500	1.762511
2.708000	1.762192
2.708500	1.760600
2.709000	1.761237
2.709500	1.764104
2.710000	1.763148
2.710500	1.759644
2.711000	1.760600
2.711500	1.764741
2.712000	1.762192
2.712500	1.759644
2.713000	1.760918
2.713500	1.765378
2.714000	1.762829
2.714500	1.760600
2.715000	1.761555
2.715500	1.763785
2.716000	1.761874
2.716500	1.760600
2.717000	1.761874
2.717500	1.762192
2.718000	1.762511
2.718500	1.760918
2.719000	1.763148
2.719500	1.762511
2.720000	1.761874
2.720500	1.761237
2.721000	1.762511
2.721500	1.761874
2.722000	1.761874
2.722500	1.762511
2.723000	1.762192
2.723500	1.760918
2.724000	1.762829
2.724500	1.762829
2.725000	1.760600
2.725500	1.761555
2.726000	1.764104
2.726500	1.763148
2.727000	1.759963
2.727500	1.760918
2.728000	1.764741
2.728500	1.762829
2.729000	1.759007
2.729500	1.761237
2.730000	1.763467
2.730500	1.761874
2.731000	1.759644
2.731500	1.761555
2.732000	1.763148
2.732500	1.762192
2.733000	1.761237
2.733500	1.762829
2.734000	1.761555
2.734500	1.761237
2.735000	1.761237
2.735500	1.762511
2.736000	1.761874
2.736500	1.761237
2.737000	1.762192
2.737500	1.761237
2.738000	1.761237
2.738500	1.761555
2.739000	1.762511
2.739500	1.760600
2.740000	1.760281
2.740500	1.762192
2.741000	1.762511
2.741500	1.759644
2.742000	1.760918
2.742500	1.764422
2.743000	1.762829
2.743500	1.759326
2.744000	1.760600
2.744500	1.763785
2.745000	1.762511
2.745500	1.758688
2.746000	1.760600
2.746500	1.764741
2.747000	1.761555
2.747500	1.759644
2.748000	1.762192
2.748500	1.763148
2.749000	1.761874
2.749500	1.760918
2.750000	1.762511
2.750500	1.762511
2.751000	1.760918
2.751500	1.761555
2.752000	1.762192
2.752500	1.763148
2.753000	1.761237
2.753500	1.761237
2.754000	1.761874
2.754500	1.761237
2.755000	1.761874
2.755500	1.762511
2.756000	1.760918
2.756500	1.760281
2.757000	1.763148
2.757500	1.762511
2.758000	1.759326
2.758500	1.760918
2.759000	1.763785
2.759500	1.762511
2.760000	1.758688
2.760500	1.760918
2.761000	1.764741
2.761500	1.761874
2.762000	1.759326
2.762500	1.761555
2.763000	1.764741
2.763500	1.761555
2.764000	1.759326
2.764500	1.761874
2.765000	1.763467
2.765500	1.760918
2.766000	1.760281
2.766500	1.762192
2.767000	1.762511
2.767500	1.760600
2.768000	1.760600
2.768500	1.761874
2.769000	1.761874
2.769500	1.761555
2.770000	1.761555
2.770500	1.761874
2.771000	1.760918
2.771500	1.761237
2.772000	1.761874
2.772500	1.760600
2.773000	1.760600
2.773500	1.763785
2.774000	1.762829
2.774500	1.760600
2.775000	1.761555
2.775500	1.763467
2.776000	1.763467
2.776500	1.759644
2.777000	1.760600
2.777500	1.763148
2.778000	1.761555
2.778500	1.759007
2.779000	1.761555
2.779500	1.764422
2.780000	1.762192
2.780500	1.759326
2.781000	1.760918
2.781500	1.764104
2.782000	1.761237
2.782500	1.760600
2.783000	1.762511
2.783500	1.763785
2.784000	1.760918
2.784500	1.760918
2.785000	1.761874
2.785500	1.761555
2.786000	1.760918
2.786500	1.761237
2.787000	1.761555
2.787500	1.761874
2.788000	1.761237
2.788500	1.760600
2.789000	1.760918
2.789500	1.761237
2.790000	1.762511
2.790500	1.761555
2.791000	1.760281
2.791500	1.759963
2.792000	1.763148
2.792500	1.762511
2.793000	1.759326
2.793500	1.760281
2.794000	1.763148
2.794500	1.761874
2.795000	1.758051
2.795500	1.760281
2.796000	1.762511
2.796500	1.761555
2.797000	1.758051
2.797500	1.760281
2.798000	1.762829
2.798500	1.760600
2.799000	1.759007
2.799500	1.761237
2.800000	1.761874
2.800500	1.760281
2.801000	1.759326
2.801500	1.760918
2.802000	1.761555
2.802500	1.759644
2.803000	1.760281
2.803500	1.761237
2.804000	1.760918
2.804500	1.760281
2.805000	1.761237
2.805500	1.760918
2.806000	1.760918
2.806500	1.761237
2.807000	1.760600
2.807500	1.759963
2.808000	1.759644
2.808500	1.761555
2.809000	1.761237
2.809500	1.758370
2.810000	1.759963
2.810500	1.762829
2.811000	1.761237
2.811500	1.757733
2.812000	1.760281
2.812500	1.763785
2.813000	1.761237
2.813500	1.758051
2.814000	1.760281
2.814500	1.763467
2.815000	1.761555
2.815500	1.759963
2.816000	1.760600
2.816500	1.762511
2.817000	1.761237
2.817500	1.760600
2.818000	1.761237
2.818500	1.761237
2.819000	1.761237
2.819500	1.760281
2.820000	1.761237
2.820500	1.761237
2.821000	1.760600
2.821500	1.760918
2.822000	1.760918
2.822500	1.760281
2.823000	1.762192
2.823500	1.762829
2.824000	1.761237
2.824500	1.759963
2.825000	1.762511
2.825500	1.762829
2.826000	1.759644
2.826500	1.759644
2.827000	1.763148
2.827500	1.761874
2.828000	1.758370
2.828500	1.760600
2.829000	1.764422
2.829500	1.762192
2.830000	1.758370
2.830500	1.761555
2.831000	1.763785
2.831500	1.762192
2.832000	1.758688
2.832500	1.761874
2.833000	1.763785
2.833500	1.761874
2.834000	1.759963
2.834500	1.762192
2.835000	1.762511
2.835500	1.760918
2.836000	1.760600
2.836500	1.761874
2.837000	1.761237
2.837500	1.760918
2.838000	1.761555
2.838500	1.761555
2.839000	1.760281
2.839500	1.760918
2.840000	1.761555
2.840500	1.761237
2.841000	1.760600
2.841500	1.762511
2.842000	1.761874
2.842500	1.760600
2.843000	1.759963
2.843500	1.764104
2.844000	1.761874
2.844500	1.759963
2.845000	1.760918
2.845500	1.763785
2.846000	1.762511
2.846500	1.758370
2.847000	1.760918
2.847500	1.764104
2.848000	1.761555
2.848500	1.759007
2.849000	1.760918
2.849500	1.762511
2.850000	1.760600
2.850500	1.759644
2.851000	1.760918
2.851500	1.762192
2.852000	1.760918
2.852500	1.760600
2.853000	1.761555
2.853500	1.759963
2.854000	1.761237
2.854500	1.761237
2.855000	1.761555
2.855500	1.760918
2.856000	1.761555
2.856500	1.760918
2.857000	1.760281
2.857500	1.760600
2.858000	1.761555
2.858500	1.760600
2.859000	1.759644
2.859500	1.760600
2.860000	1.763148
2.860500	1.762511
2.861000	1.758051
2.861500	1.759963
2.862000	1.763785
2.862500	1.761555
2.863000	1.758370
2.863500	1.760918
2.864000	1.763467
2.864500	1.761237
2.865000	1.759326
2.865500	1.760918
2.866000	1.763148
2.866500	1.761237
2.867000	1.759644
2.867500	1.761237
2.868000	1.761874
2.868500	1.760918
2.869000	1.760281
2.869500	1.760600
2.870000	1.761237
2.870500	1.760600
2.871000	1.761555
2.871500	1.760918
2.872000	1.761237
2.872500	1.761237
2.873000	1.760918
2.873500	1.760918
2.874000	1.759963
2.874500	1.761555
2.875000	1.761874
2.875500	1.759644
2.876000	1.759963
2.876500	1.762192
2.877000	1.761237
2.877500	1.758688
2.878000	1.759644
2.878500	1.762829
2.879000	1.762192
2.879500	1.758370
2.880000	1.760918
2.880500	1.763148
2.881000	1.761555
2.881500	1.758051
2.882000	1.759644
2.882500	1.762829
2.883000	1.760918
2.883500	1.758051
2.884000	1.760600
2.884500	1.761555
2.885000	1.759326
2.885500	1.759963
2.886000	1.760600
2.886500	1.761555
2.887000	1.759644
2.887500	1.759644
2.888000	1.761555
2.888500	1.760600
2.889000	1.760281
2.889500	1.760281
2.890000	1.760600
2.890500	1.761555
2.891000	1.761237
2.891500	1.761237
2.892000	1.759326
2.892500	1.760600
2.893000	1.762511
2.893500	1.761237
2.894000	1.759326
2.894500	1.759326
2.895000	1.762829
2.895500	1.762192
2.896000	1.758370
2.896500	1.759963
2.897000	1.763785
2.897500	1.762192
2.898000	1.758051
2.898500	1.760281
2.899000	1.762829
2.899500	1.761555
2.900000	1.758688
2.900500	1.760600
2.901000	1.761237
2.901500	1.760600
2.902000	1.760281
2.902500	1.760918
2.903000	1.760600
2.903500	1.759963
2.904000	1.759644
2.904500	1.761237
2.905000	1.760918
2.905500	1.760600
2.906000	1.760281
2.906500	1.760918
2.907000	1.760918
2.907500	1.761237
2.908000	1.760918
2.908500	1.759007
2.909000	1.759644
2.909500	1.761555
2.910000	1.761237
2.910500	1.758370
2.911000	1.760281
2.911500	1.762829
2.912000	1.760918
2.912500	1.757414
2.913000	1.759644
2.913500	1.763467
2.914000	1.760918
2.914500	1.758051
2.915000	1.760600
2.915500	1.762829
2.916000	1.760600
2.916500	1.758688
2.917000	1.760918
2.917500	1.761237
2.918000	1.760600
2.918500	1.759963
2.919000	1.761237
2.919500	1.760918
2.920000	1.760281
2.920500	1.760918
2.921000	1.761555
2.921500	1.759963
2.922000	1.760600
2.922500	1.761237
2.923000	1.760281
2.923500	1.761237
2.924000	1.762511
2.924500	1.761874
2.925000	1.759007
2.925500	1.759963
2.926000	1.763467
2.926500	1.761555
2.927000	1.758688
2.927500	1.759963
2.928000	1.763467
2.928500	1.761237
2.929000	1.757733
2.929500	1.760281
2.930000	1.763785
2.930500	1.761874
2.931000	1.758688
2.931500	1.760600
2.932000	1.763467
2.932500	1.761237
2.933000	1.758688
2.933500	1.761874
2.934000	1.761555
2.934500	1.760600
2.935000	1.759644
2.935500	1.761237
2.936000	1.760600
2.936500	1.760600
2.937000	1.760600
2.937500	1.761237
2.938000	1.759963
2.938500	1.760600
2.939000	1.760918
2.939500	1.760600
2.940000	1.760600
2.940500	1.760918
2.941000	1.761555
2.941500	1.759326
2.942000	1.759326
2.942500	1.762192
2.943000	1.762511
2.943500	1.758688
2.944000	1.759326
2.944500	1.763785
2.945000	1.761237
2.945500	1.758688
2.946000	1.760281
2.946500	1.763148
2.947000	1.761237
2.947500	1.759007
2.948000	1.760281
2.948500	1.761874
2.949000	1.761237
2.949500	1.759326
2.950000	1.759326
2.950500	1.761555
2.951000	1.759963
2.951500	1.759644
2.952000	1.761874
2.952500	1.761237
2.953000	1.760600
2.953500	1.761237
2.954000	1.760600
2.954500	1.760281
2.955000	1.760600
2.955500	1.760918
2.956000	1.759963
2.956500	1.759963
2.957000	1.761237
2.957500	1.761237
2.958000	1.759326
2.958500	1.758370
2.959000	1.762829
2.959500	1.760918
2.960000	1.759007
2.960500	1.759326
2.961000	1.763467
2.961500	1.760918
2.962000	1.757733
2.962500	1.760281
2.963000	1.762511
2.963500	1.761237
2.964000	1.758051
2.964500	1.760600
2.965000	1.762829
2.965500	1.760281
2.966000	1.759963
2.966500	1.760918
2.967000	1.762511
2.967500	1.760600
2.968000	1.761237
2.968500	1.761237
2.969000	1.761555
2.969500	1.759644
2.970000	1.760918
2.970500	1.762192
2.971000	1.760600
2.971500	1.760918
2.972000	1.761237
2.972500	1.761237
2.973000	1.760600
2.973500	1.761237
2.974000	1.761874
2.974500	1.759644
2.975000	1.760600
2.975500	1.763148
2.976000	1.761237
2.976500	1.759644
2.977000	1.760600
2.977500	1.764104
2.978000	1.761555
2.978500	1.758370
2.979000	1.760918
2.979500	1.764422
2.980000	1.761555
2.980500	1.759326
2.981000	1.761874
2.981500	1.763467
2.982000	1.760918
2.982500	1.759326
2.983000	1.761555
2.983500	1.762192
2.984000	1.761237
2.984500	1.760918
2.985000	1.761555
2.985500	1.761874
2.986000	1.759963
2.986500	1.761237
2.987000	1.761237
2.987500	1.760918
2.988000	1.761237
2.988500	1.761555
2.989000	1.761237
2.989500	1.759963
2.990000	1.761237
2.990500	1.762192
2.991000	1.759326
2.991500	1.759963
2.992000	1.762511
2.992500	1.762829
2.993000	1.759644
2.993500	1.761237
2.994000	1.764104
2.994500	1.761874
2.995000	1.759007
2.995500	1.761237
2.996000	1.764422
2.996500	1.761874
2.997000	1.759644
2.997500	1.761555
2.998000	1.763467
2.998500	1.761874
2.999000	1.759963
2.999500	1.761555
3.000000	1.764741
3.000500	1.760918
3.001000	1.760600
3.001500	1.762192
3.002000	1.761874
3.002500	1.761555
3.003000	1.762511
3.003500	1.761555
3.004000	1.761237
3.004500	1.761555
3.005000	1.761874
3.005500	1.760600
3.006000	1.760918
3.006500	1.761555
3.007000	1.762192
3.007500	1.760918
3.008000	1.760281
3.008500	1.763785
3.009000	1.761555
3.009500	1.760281
3.010000	1.760600
3.010500	1.763785
3.011000	1.762829
3.011500	1.759326
3.012000	1.759963
3.012500	1.764104
3.013000	1.762192
3.013500	1.759644
3.014000	1.761555
3.014500	1.763467
3.015000	1.761555
3.015500	1.760281
3.016000	1.761237
3.016500	1.761555
3.017000	1.762192
3.017500	1.761874
3.018000	1.761555
3.018500	1.761237
3.019000	1.760918
3.019500	1.761555
3.020000	1.761237
3.020500	1.760918
3.021000	1.761555
3.021500	1.763148
3.022000	1.761555
3.022500	1.761237
3.023000	1.763148
3.023500	1.761555
3.024000	1.759644
3.024500	1.759963
3.025000	1.764104
3.025500	1.762511
3.026000	1.759326
3.026500	1.760281
3.027000	1.764422
3.027500	1.761874
3.028000	1.759963
3.028500	1.760281
3.029000	1.763467
3.029500	1.761555
3.030000	1.760600
3.030500	1.761874
3.031000	1.762511
3.031500	1.760918
3.032000	1.759644
3.032500	1.761874
3.033000	1.763148
3.033500	1.761555
3.034000	1.760918
3.034500	1.761555
3.035000	1.760600
3.035500	1.761874
3.036000	1.761555
3.036500	1.761237
3.037000	1.760918
3.037500	1.760918
3.038000	1.761874
3.038500	1.760281
3.039000	1.760918
3.039500	1.763148
3.040000	1.762192
3.040500	1.759963
3.041000	1.760281
3.041500	1.763467
3.042000	1.761555
3.042500	1.758370
3.043000	1.760918
3.043500	1.763785
3.044000	1.761237
3.044500	1.759007
3.045000	1.760918
3.045500	1.764422
3.046000	1.761874
3.046500	1.759007
3.047000	1.761555
3.047500	1.763148
3.048000	1.761237
3.048500	1.759963
3.049000	1.761874
3.049500	1.761555
3.050000	1.760918
3.050500	1.761237
3.051000	1.762829
3.051500	1.760600
3.052000	1.760918
3.052500	1.761874
3.053000	1.760918
3.053500	1.759963
3.054000	1.761874
3.054500	1.761555
3.055000	1.759326
3.055500	1.759644
3.056000	1.762511
3.056500	1.761555
3.057000	1.758370
3.057500	1.759963
3.058000	1.762511
3.058500	1.760281
3.059000	1.757733
3.059500	1.759644
3.060000	1.761874
3.060500	1.760600
3.061000	1.758051
3.061500	1.759644
3.062000	1.761555
3.062500	1.759963
3.063000	1.759007
3.063500	1.759644
3.064000	1.760600
3.064500	1.759963
3.065000	1.759326
3.065500	1.759963
3.066000	1.760281
3.066500	1.758688
3.067000	1.760281
3.067500	1.759963
3.068000	1.759963
3.068500	1.760281
3.069000	1.759644
3.069500	1.759644
3.070000	1.759644
3.070500	1.760918
3.071000	1.761555
3.071500	1.758688
3.072000	1.759007
3.072500	1.762511
3.073000	1.761237
3.073500	1.758688
3.074000	1.759007
3.074500	1.764104
3.075000	1.760918
3.075500	1.758051
3.076000	1.759644
3.076500	1.762511
3.077000	1.761237
3.077500	1.758370
3.078000	1.759963
3.078500	1.762192
3.079000	1.760918
3.079500	1.759644
3.080000	1.761555
3.080500	1.761237
3.081000	1.760281
3.081500	1.759963
3.082000	1.760918
3.082500	1.760600
3.083000	1.760281
3.083500	1.761555
3.084000	1.761237
3.084500	1.760918
3.085000	1.761237
3.085500	1.761874
3.086000	1.760281
3.086500	1.759963
3.087000	1.762511
3.087500	1.762511
3.088000	1.759326
3.088500	1.759644
3.089000	1.763148
3.089500	1.761237
3.090000	1.758688
3.090500	1.760281
3.091000	1.764104
3.091500	1.762192
3.092000	1.759007
3.092500	1.760918
3.093000	1.763148
3.093500	1.761555
3.094000	1.759963
3.094500	1.761555
3.095000	1.762192
3.095500	1.760281
3.096000	1.760600
3.096500	1.760281
3.097000	1.761237
3.097500	1.760600
3.098000	1.760600
3.098500	1.761237
3.099000	1.760600
3.099500	1.760600
3.100000	1.760918
3.100500	1.760281
3.101000	1.760600
3.101500	1.762192
3.102000	1.761555
3.102500	1.759963
3.103000	1.760600
3.103500	1.763148
3.104000	1.762511
3.104500	1.758370
3.105000	1.759963
3.105500	1.763467
3.106000	1.762511
3.106500	1.758688
3.107000	1.760600
3.107500	1.762829
3.108000	1.761555
3.108500	1.758370
3.109000	1.760600
3.109500	1.763148
3.110000	1.760918
3.110500	1.759007
3.111000	1.760918
3.111500	1.761555
3.112000	1.759963
3.112500	1.760281
3.113000	1.761555
3.113500	1.761237
3.114000	1.759963
3.114500	1.760918
3.115000	1.760281
3.115500	1.760600
3.116000	1.760600
3.116500	1.760600
3.117000	1.759963
3.117500	1.760281
3.118000	1.761237
3.118500	1.761555
3.119000	1.759007
3.119500	1.759644
3.120000	1.763148
3.120500	1.761237
3.121000	1.758370
3.121500	1.759326
3.122000	1.763785
3.122500	1.760281
3.123000	1.758051
3.123500	1.759644
3.124000	1.763785
3.124500	1.761237
3.125000	1.758370
3.125500	1.759326
3.126000	1.762192
3.126500	1.760918
3.127000	1.758370
3.127500	1.760281
3.128000	1.761237
3.128500	1.759963
3.129000	1.759326
3.129500	1.761237
3.130000	1.761555
3.130500	1.759963
3.131000	1.759644
3.131500	1.760918
3.132000	1.760918
3.132500	1.760600
3.133000	1.760918
3.133500	1.760600
3.134000	1.760281
3.134500	1.760600
3.135000	1.761555
3.135500	1.760281
3.136000	1.760281
3.136500	1.760918
3.137000	1.761237
3.137500	1.759963
3.138000	1.759007
3.138500	1.762192
3.139000	1.761555
3.139500	1.758051
3.140000	1.759007
3.140500	1.762511
3.141000	1.760918
3.141500	1.758370
3.142000	1.759644
3.142500	1.762829
3.143000	1.761555
3.143500	1.758051
3.144000	1.759644
3.144500	1.762829
3.145000	1.760281
3.145500	1.759326
3.146000	1.759963
3.146500	1.760600
3.147000	1.760281
3.147500	1.759326
3.148000	1.761237
3.148500	1.760918
3.149000	1.759326
3.149500	1.759963
3.150000	1.761237
3.150500	1.759963
3.151000	1.759326
3.151500	1.760281
3.152000	1.759644
3.152500	1.759963
3.153000	1.760600
3.153500	1.760918
3.154000	1.759326
3.154500	1.759007
3.155000	1.761237
3.155500	1.760600
3.156000	1.757414
3.156500	1.759007
3.157000	1.763148
3.157500	1.760281
3.158000	1.757733
3.158500	1.759326
3.159000	1.762829
3.159500	1.760918
3.160000	1.757414
3.160500	1.759326
3.161000	1.762511
3.161500	1.760281
3.162000	1.757414
3.162500	1.759326
3.163000	1.761555
3.163500	1.759963
3.164000	1.758370
3.164500	1.760600
3.165000	1.759963
3.165500	1.759963
3.166000	1.759007
3.166500	1.759963
3.167000	1.760600
3.167500	1.760281
3.168000	1.759963
3.168500	1.760600
3.169000	1.759644
3.169500	1.759963
3.170000	1.760281
3.170500	1.759963
3.171000	1.759963
3.171500	1.759963
3.172000	1.760918
3.172500	1.759644
3.173000	1.759326
3.173500	1.761237
3.174000	1.761237
3.174500	1.759326
3.175000	1.759644
3.175500	1.763148
3.176000	1.761237
3.176500	1.757733
3.177000	1.759963
3.177500	1.763148
3.178000	1.760918
3.178500	1.757733
3.179000	1.761237
3.179500	1.763148
3.180000	1.760918
3.180500	1.758051
3.181000	1.760281
3.181500	1.762829
3.182000	1.760918
3.182500	1.759007
3.183000	1.760281
3.183500	1.761237
3.184000	1.760281
3.184500	1.760281
3.185000	1.760918
3.185500	1.760281
3.186000	1.760600
3.186500	1.759326
3.187000	1.760600
3.187500	1.760600
3.188000	1.759644
3.188500	1.760600
3.189000	1.760281
3.189500	1.759963
3.190000	1.760918
3.190500	1.760600
3.191000	1.760281
3.191500	1.758688
3.192000	1.760918
3.192500	1.760918
3.193000	1.758370
3.193500	1.759326
3.194000	1.762829
3.194500	1.760281
3.195000	1.758051
3.195500	1.759963
3.196000	1.763467
3.196500	1.760600
3.197000	1.757414
3.197500	1.759963
3.198000	1.764104
3.198500	1.760281
3.199000	1.758051
3.199500	1.759963
3.200000	1.762829
3.200500	1.760281
3.201000	1.759644
3.201500	1.761237
3.202000	1.761874
3.202500	1.760281
3.203000	1.759007
3.203500	1.760918
3.204000	1.760600
3.204500	1.760600
3.205000	1.761555
3.205500	1.761874
3.206000	1.760918
3.206500	1.760600
3.207000	1.760600
3.207500	1.760918
3.208000	1.760600
3.208500	1.761874
3.209000	1.761874
3.209500	1.759963
3.210000	1.759326
3.210500	1.761874
3.211000	1.761874
3.211500	1.758688
3.212000	1.759644
3.212500	1.763467
3.213000	1.762829
3.213500	1.759007
3.214000	1.760281
3.214500	1.763785
3.215000	1.762511
3.215500	1.758688
3.216000	1.760918
3.216500	1.764422
3.217000	1.761874
3.217500	1.759644
3.218000	1.760918
3.218500	1.762829
3.219000	1.761555
3.219500	1.759963
3.220000	1.762192
3.220500	1.763148
3.221000	1.761555
3.221500	1.761555
3.222000	1.761874
3.222500	1.760918
3.223000	1.761237
3.223500	1.761874
3.224000	1.761237
3.224500	1.761874
3.225000	1.760918
3.225500	1.762511
3.226000	1.761874
3.226500	1.761555
3.227000	1.762829
3.227500	1.762829
3.228000	1.759963
3.228500	1.761555
3.229000	1.764104
3.229500	1.763148
3.230000	1.760281
3.230500	1.761555
3.231000	1.764422
3.231500	1.762511
3.232000	1.759326
3.232500	1.761237
3.233000	1.764104
3.233500	1.761555
3.234000	1.759644
3.234500	1.761237
3.235000	1.764104
3.235500	1.762511
3.236000	1.759963
3.236500	1.762829
3.237000	1.763467
3.237500	1.761874
3.238000	1.762192
3.238500	1.762192
3.239000	1.761555
3.239500	1.761555
3.240000	1.762192
3.240500	1.762511
3.241000	1.761237
3.241500	1.762192
3.242000	1.762829
3.242500	1.761874
3.243000	1.761555
3.243500	1.763785
3.244000	1.762829
3.244500	1.760600
3.245000	1.759963
3.245500	1.763467
3.246000	1.761874
3.246500	1.758051
3.247000	1.760600
3.247500	1.763148
3.248000	1.761874
3.248500	1.758688
3.249000	1.760918
3.249500	1.764104
3.250000	1.761555
3.250500	1.759007
3.251000	1.760281
3.251500	1.763785
3.252000	1.761237
3.252500	1.759007
3.253000	1.760918
3.253500	1.761874
3.254000	1.759644
3.254500	1.759963
3.255000	1.761237
3.255500	1.760918
3.256000	1.759644
3.256500	1.759963
3.257000	1.761237
3.257500	1.760281
3.258000	1.759644
3.258500	1.761237
3.259000	1.760918
3.259500	1.760918
3.260000	1.759963
3.260500	1.760918
3.261000	1.759963
3.261500	1.759644
3.262000	1.761555
3.262500	1.760281
3.263000	1.759326
3.263500	1.759644
3.264000	1.762511
3.264500	1.760918
3.265000	1.757733
3.265500	1.759644
3.266000	1.762829
3.266500	1.759326
3.267000	1.758051
3.267500	1.759963
3.268000	1.762829
3.268500	1.760918
3.269000	1.758370
3.269500	1.759644
3.270000	1.762511
3.270500	1.761237
3.271000	1.758688
3.271500	1.760281
3.272000	1.762192
3.272500	1.759963
3.273000	1.759963
3.273500	1.761874
3.274000	1.761555
3.274500	1.759963
3.275000	1.760918
3.275500	1.760918
3.276000	1.760600
3.276500	1.759644
3.277000	1.760281
3.277500	1.759963
3.278000	1.759963
3.278500	1.761237
3.279000	1.761237
3.279500	1.759326
3.280000	1.760600
3.280500	1.762192
3.281000	1.761237
3.281500	1.759007
3.282000	1.759963
3.282500	1.762829
3.283000	1.761874
3.283500	1.758051
3.284000	1.760281
3.284500	1.763467
3.285000	1.761874
3.285500	1.758688
3.286000	1.760600
3.286500	1.763785
3.287000	1.761874
3.287500	1.759007
3.288000	1.761874
3.288500	1.762829
3.289000	1.761237
3.289500	1.759007
3.290000	1.761874
3.290500	1.761874
3.291000	1.760281
3.291500	1.759644
3.292000	1.761237
3.292500	1.761555
3.293000	1.760918
3.293500	1.761555
3.294000	1.761874
3.294500	1.760918
3.295000	1.760918
3.295500	1.762192
3.296000	1.760600
3.296500	1.761237
3.297000	1.762511
3.297500	1.761874
3.298000	1.760600
3.298500	1.760918
3.299000	1.763148
3.299500	1.762511
3.300000	1.759963
3.300500	1.759326
3.301000	1.764741
3.301500	1.762192
3.302000	1.758688
3.302500	1.761237
3.303000	1.763467
3.303500	1.761874
3.304000	1.759007
3.304500	1.760600
3.305000	1.763785
3.305500	1.761237
3.306000	1.759644
3.306500	1.760600
3.307000	1.763148
3.307500	1.761237
3.308000	1.760918
3.308500	1.761555
3.309000	1.762192
3.309500	1.760600
3.310000	1.759963
3.310500	1.761237
3.311000	1.759963
3.311500	1.760281
3.312000	1.760600
3.312500	1.761874
3.313000	1.760600
3.313500	1.760600
3.314000	1.761237
3.314500	1.759644
3.315000	1.759644
3.315500	1.760918
3.316000	1.760918
3.316500	1.758688
3.317000	1.759963
3.317500	1.762192
3.318000	1.760918
3.318500	1.757414
3.319000	1.759326
3.319500	1.762829
3.320000	1.761237
3.320500	1.757733
3.321000	1.759644
3.321500	1.762829
3.322000	1.760600
3.322500	1.758051
3.323000	1.760281
3.323500	1.762511
3.324000	1.760918
3.324500	1.759007
3.325000	1.760281
3.325500	1.761237
3.326000	1.759963
3.326500	1.759963
3.327000	1.760918
3.327500	1.760600
3.328000	1.760281
3.328500	1.760918
3.329000	1.760918
3.329500	1.760918
3.330000	1.760281
3.330500	1.760918
3.331000	1.759644
3.331500	1.759644
3.332000	1.761874
3.332500	1.761555
3.333000	1.759007
3.333500	1.760281
3.334000	1.762829
3.334500	1.761874
3.335000	1.758370
3.335500	1.759644
3.336000	1.764104
3.336500	1.761237
3.337000	1.758370
3.337500	1.759963
3.338000	1.764104
3.338500	1.761555
3.339000	1.758370
3.339500	1.759963
3.340000	1.762511
3.340500	1.760600
3.341000	1.759963
3.341500	1.761237
3.342000	1.761555
3.342500	1.760600
3.343000	1.760600
3.343500	1.761237
3.344000	1.761237
3.344500	1.760918
3.345000	1.761555
3.345500	1.761237
3.346000	1.760918
3.346500	1.761237
3.347000	1.761555
3.347500	1.761237
3.348000	1.761555
3.348500	1.763148
3.349000	1.762192
3.349500	1.759644
3.350000	1.759963
3.350500	1.763467
3.351000	1.762192
3.351500	1.759007
3.352000	1.759963
3.352500	1.765059
3.353000	1.763148
3.353500	1.759644
3.354000	1.761237
3.354500	1.763785
3.355000	1.761874
3.355500	1.759007
3.356000	1.761237
3.356500	1.765378
3.357000	1.761874
3.357500	1.759963
3.358000	1.761555
3.358500	1.763148
3.359000	1.761237
3.359500	1.759963
3.360000	1.761874
3.360500	1.761874
3.361000	1.761237
3.361500	1.760600
3.362000	1.761874
3.362500	1.762192
3.363000	1.761555
3.363500	1.762511
3.364000	1.761555
3.364500	1.760918
3.365000	1.761874
3.365500	1.761237
3.366000	1.760918
3.366500	1.761555
3.367000	1.763148
3.367500	1.762829
3.368000	1.760600
3.368500	1.761237
3.369000	1.763785
3.369500	1.762829
3.370000	1.759326
3.370500	1.761237
3.371000	1.764741
3.371500	1.762829
3.372000	1.759326
3.372500	1.761555
3.373000	1.764741
3.373500	1.762829
3.374000	1.760281
3.374500	1.761874
3.375000	1.763785
3.375500	1.762511
3.376000	1.760600
3.376500	1.762192
3.377000	1.762511
3.377500	1.761555
3.378000	1.761555
3.378500	1.762829
3.379000	1.762511
3.379500	1.761237
3.380000	1.761874
3.380500	1.761874
3.381000	1.761237
3.381500	1.760918
3.382000	1.762511
3.382500	1.761874
3.383000	1.758051
3.383500	1.762192
3.384000	1.762192
3.384500	1.760281
3.385000	1.761555
3.385500	1.763785
3.386000	1.762511
3.386500	1.759326
3.387000	1.761237
3.387500	1.764741
3.388000	1.762192
3.388500	1.759644
3.389000	1.761555
3.389500	1.764422
3.390000	1.762829
3.390500	1.760281
3.391000	1.762192
3.391500	1.764104
3.392000	1.760600
3.392500	1.760600
3.393000	1.762511
3.393500	1.762511
3.394000	1.761237
3.394500	1.761874
3.395000	1.761874
3.395500	1.762192
3.396000	1.760600
3.396500	1.762511
3.397000	1.762192
3.397500	1.760281
3.398000	1.761874
3.398500	1.762192
3.399000	1.760600
3.399500	1.761874
3.400000	1.762511
3.400500	1.762829
3.401000	1.760600
3.401500	1.760281
3.402000	1.763467
3.402500	1.762192
3.403000	1.759326
3.403500	1.761237
3.404000	1.764741
3.404500	1.762511
3.405000	1.759644
3.405500	1.761237
3.406000	1.763467
3.406500	1.762192
3.407000	1.759326
3.407500	1.762192
3.408000	1.763467
3.408500	1.760600
3.409000	1.761555
3.409500	1.761237
3.410000	1.761555
3.410500	1.761237
3.411000	1.761237
3.411500	1.762511
3.412000	1.762192
3.412500	1.761555
3.413000	1.762829
3.413500	1.761874
3.414000	1.761555
3.414500	1.762829
3.415000	1.761555
3.415500	1.760918
3.416000	1.760600
3.416500	1.764104
3.417000	1.762511
3.417500	1.759644
3.418000	1.760918
3.418500	1.763785
3.419000	1.762192
3.419500	1.758688
3.420000	1.761237
3.420500	1.764741
3.421000	1.762192
3.421500	1.758688
3.422000	1.760918
3.422500	1.763467
3.423000	1.761555
3.423500	1.759963
3.424000	1.760918
3.424500	1.762511
3.425000	1.761237
3.425500	1.760600
3.426000	1.761555
3.426500	1.761555
3.427000	1.761237
3.427500	1.760918
3.428000	1.760918
3.428500	1.761237
3.429000	1.760918
3.429500	1.760600
3.430000	1.761555
3.430500	1.760600
3.431000	1.762192
3.431500	1.761237
3.432000	1.759644
3.432500	1.759644
3.433000	1.763467
3.433500	1.762511
3.434000	1.759007
3.434500	1.759007
3.435000	1.764422
3.435500	1.761237
3.436000	1.758688
3.436500	1.760281
3.437000	1.763785
3.437500	1.761237
3.438000	1.758051
3.438500	1.760918
3.439000	1.762192
3.439500	1.760918
3.440000	1.759963
3.440500	1.761237
3.441000	1.761874
3.441500	1.761237
3.442000	1.760600
3.442500	1.761237
3.443000	1.761555
3.443500	1.760918
3.444000	1.760918
3.444500	1.761237
3.445000	1.760281
3.445500	1.761555
3.446000	1.760600
3.446500	1.760281
3.447000	1.760281
3.447500	1.762511
3.448000	1.761555
3.448500	1.760281
3.449000	1.760281
3.449500	1.763148
3.450000	1.761874
3.450500	1.759007
3.451000	1.759963
3.451500	1.763785
3.452000	1.761555
3.452500	1.758688
3.453000	1.761237
3.453500	1.763148
3.454000	1.761237
3.454500	1.759326
3.455000	1.760918
3.455500	1.762829
3.456000	1.759644
3.456500	1.759644
3.457000	1.760600
3.457500	1.761555
3.458000	1.759644
3.458500	1.761237
3.459000	1.760918
3.459500	1.760918
3.460000	1.760918
3.460500	1.759963
3.461000	1.760918
3.461500	1.759963
3.462000	1.761237
3.462500	1.760281
3.463000	1.759644
3.463500	1.759007
3.464000	1.762192
3.464500	1.760918
3.465000	1.759007
3.465500	1.759963
3.466000	1.761555
3.466500	1.762192
3.467000	1.758051
3.467500	1.759963
3.468000	1.762511
3.468500	1.761237
3.469000	1.758688
3.469500	1.759644
3.470000	1.763467
3.470500	1.760600
3.471000	1.758370
3.471500	1.760918
3.472000	1.763148
3.472500	1.759644
3.473000	1.757733
3.473500	1.760918
3.474000	1.760918
3.474500	1.759644
3.475000	1.759963
3.475500	1.760600
3.476000	1.760918
3.476500	1.759644
3.477000	1.760281
3.477500	1.760281
3.478000	1.759963
3.478500	1.759963
3.479000	1.760918
3.479500	1.759963
3.480000	1.759644
3.480500	1.760281
3.481000	1.760600
3.481500	1.759326
3.482000	1.759326
3.482500	1.761555
3.483000	1.761555
3.483500	1.759007
3.484000	1.759644
3.484500	1.763785
3.485000	1.760918
3.485500	1.757414
3.486000	1.759326
3.486500	1.763148
3.487000	1.760918
3.487500	1.756777
3.488000	1.759644
3.488500	1.762511
3.489000	1.760281
3.489500	1.758370
3.490000	1.759963
3.490500	1.761874
3.491000	1.759326
3.491500	1.758051
3.492000	1.760600
3.492500	1.760918
3.493000	1.759326
3.493500	1.759963
3.494000	1.759963
3.494500	1.760918
3.495000	1.760281
3.495500	1.760600
3.496000	1.759963
3.496500	1.759007
3.497000	1.760600
3.497500	1.760600
3.498000	1.759644
3.498500	1.759007
3.499000	1.761237
3.499500	1.760600
3.500000	1.758688
3.500500	1.759326
3.501000	1.762511
3.501500	1.760600
3.502000	1.757414
3.502500	1.758688
3.503000	1.762829
3.503500	1.761237
3.504000	1.757414
3.504500	1.759326
3.505000	1.762829
3.505500	1.760281
3.506000	1.758051
3.506500	1.760281
3.507000	1.762829
3.507500	1.760918
3.508000	1.758688
3.508500	1.760281
3.509000	1.761555
3.509500	1.760281
3.510000	1.759326
3.510500	1.760918
3.511000	1.760600
3.511500	1.760600
3.512000	1.760600
3.512500	1.761555
3.513000	1.760281
3.513500	1.760600
3.514000	1.761237
3.514500	1.761555
3.515000	1.760600
3.515500	1.762829
3.516000	1.762511
3.516500	1.759963
3.517000	1.760600
3.517500	1.764104
3.518000	1.762511
3.518500	1.759644
3.519000	1.760281
3.519500	1.763785
3.520000	1.761555
3.520500	1.758688
3.521000	1.760918
3.521500	1.763785
3.522000	1.761555
3.522500	1.759007
3.523000	1.761237
3.523500	1.763148
3.524000	1.760600
3.524500	1.760918
3.525000	1.761555
3.525500	1.762192
3.526000	1.760281
3.526500	1.761555
3.527000	1.761874
3.527500	1.760918
3.528000	1.761237
3.528500	1.761237
3.529000	1.761555
3.529500	1.760600
3.530000	1.761874
3.530500	1.761555
3.531000	1.760600
3.531500	1.760600
3.532000	1.762829
3.532500	1.762192
3.533000	1.757414
3.533500	1.759644
3.534000	1.763148
3.534500	1.761874
3.535000	1.758688
3.535500	1.761555
3.536000	1.763785
3.536500	1.762192
3.537000	1.758688
3.537500	1.759963
3.538000	1.763785
3.538500	1.761555
3.539000	1.759326
3.539500	1.760918
3.540000	1.763148
3.540500	1.761874
3.541000	1.760281
3.541500	1.761555
3.542000	1.761874
3.542500	1.760918
3.543000	1.760600
3.543500	1.761555
3.544000	1.761237
3.544500	1.760600
3.545000	1.760918
3.545500	1.761237
3.546000	1.761555
3.546500	1.761237
3.547000	1.761555
3.547500	1.761555
3.548000	1.761237
3.548500	1.762829
3.549000	1.761874
3.549500	1.759963
3.550000	1.760918
3.550500	1.763148
3.551000	1.761874
3.551500	1.759644
3.552000	1.760918
3.552500	1.764104
3.553000	1.762192
3.553500	1.758688
3.554000	1.759963
3.554500	1.764422
3.555000	1.761555
3.555500	1.759007
3.556000	1.760918
3.556500	1.763467
3.557000	1.761555
3.557500	1.759326
3.558000	1.761237
3.558500	1.762511
3.559000	1.761237
3.559500	1.760918
3.560000	1.762192
3.560500	1.761874
3.561000	1.760600
3.561500	1.760600
3.562000	1.761874
3.562500	1.762829
3.563000	1.761555
3.563500	1.761874
3.564000	1.761555
3.564500	1.761237
3.565000	1.762511
3.565500	1.762192
3.566000	1.760918
3.566500	1.761237
3.567000	1.762511
3.567500	1.762511
3.568000	1.760281
3.568500	1.760918
3.569000	1.763785
3.569500	1.762511
3.570000	1.759326
3.570500	1.760918
3.571000	1.764422
3.571500	1.762192
3.572000	1.758370
3.572500	1.760600
3.573000	1.764422
3.573500	1.761874
3.574000	1.759326
3.574500	1.761874
3.575000	1.763467
3.575500	1.761555
3.576000	1.759963
3.576500	1.761874
3.577000	1.761874
3.577500	1.760600
3.578000	1.760281
3.578500	1.761874
3.579000	1.761555
3.579500	1.760918
3.580000	1.759963
3.580500	1.761237
3.581000	1.761237
3.581500	1.761237
3.582000	1.762192
3.582500	1.761237
3.583000	1.759963
3.583500	1.761555
3.584000	1.762192
3.584500	1.759963
3.585000	1.760281
3.585500	1.762829
3.586000	1.762192
3.586500	1.759644
3.587000	1.759644
3.587500	1.763785
3.588000	1.761555
3.588500	1.759007
3.589000	1.760600
3.589500	1.764422
3.590000	1.761237
3.590500	1.759007
3.591000	1.760600
3.591500	1.763785
3.592000	1.761237
3.592500	1.759326
3.593000	1.761237
3.593500	1.762511
3.594000	1.761555
3.594500	1.759963
3.595000	1.760918
3.595500	1.760918
3.596000	1.759963
3.596500	1.760600
3.597000	1.761555
3.597500	1.760281
3.598000	1.760281
3.598500	1.761874
3.599000	1.760600
3.599500	1.760600
3.600000	1.761237
3.600500	1.761555
3.601000	1.759326
3.601500	1.759963
3.602000	1.761874
3.602500	1.761237
3.603000	1.759007
3.603500	1.760281
3.604000	1.762511
3.604500	1.761874
3.605000	1.758688
3.605500	1.759644
3.606000	1.763148
3.606500	1.761237
3.607000	1.758370
3.607500	1.759963
3.608000	1.762829
3.608500	1.760600
3.609000	1.759007
3.609500	1.759963
3.610000	1.762192
3.610500	1.760281
3.611000	1.759963
3.611500	1.760600
3.612000	1.760918
3.612500	1.759963
3.613000	1.760918
3.613500	1.761555
3.614000	1.760918
3.614500	1.761237
3.615000	1.761555
3.615500	1.761555
3.616000	1.760600
3.616500	1.761555
3.617000	1.761874
3.617500	1.759963
3.618000	1.759963
3.618500	1.762829
3.619000	1.762511
3.619500	1.759326
3.620000	1.759326
3.620500	1.763785
3.621000	1.762192
3.621500	1.758688
3.622000	1.760600
3.622500	1.763785
3.623000	1.761237
3.623500	1.758051
3.624000	1.760281
3.624500	1.763785
3.625000	1.762192
3.625500	1.759007
3.626000	1.760918
3.626500	1.763467
3.627000	1.760918
3.627500	1.760600
3.628000	1.761237
3.628500	1.760600
3.629000	1.760281
3.629500	1.759963
3.630000	1.761874
3.630500	1.760918
3.631000	1.761237
3.631500	1.760918
3.632000	1.761555
3.632500	1.761237
3.633000	1.761555
3.633500	1.761555
3.634000	1.760918
3.634500	1.759963
3.635000	1.762192
3.635500	1.762511
3.636000	1.759326
3.636500	1.760281
3.637000	1.763467
3.637500	1.762192
3.638000	1.759326
3.638500	1.760281
3.639000	1.764104
3.639500	1.762192
3.640000	1.758051
3.640500	1.760918
3.641000	1.763785
3.641500	1.762192
3.642000	1.759644
3.642500	1.761555
3.643000	1.763785
3.643500	1.761874
3.644000	1.760281
3.644500	1.761555
3.645000	1.761874
3.645500	1.760918
3.646000	1.760600
3.646500	1.761555
3.647000	1.761237
3.647500	1.760600
3.648000	1.761555
3.648500	1.761237
3.649000	1.760600
3.649500	1.762192
3.650000	1.761874
3.650500	1.760281
3.651000	1.760600
3.651500	1.762829
3.652000	1.761874
3.652500	1.759326
3.653000	1.761555
3.653500	1.764104
3.654000	1.762192
3.654500	1.758370
3.655000	1.760281
3.655500	1.764422
3.656000	1.761874
3.656500	1.758370
3.657000	1.760600
3.657500	1.763785
3.658000	1.761874
3.658500	1.759644
3.659000	1.761237
3.659500	1.763467
3.660000	1.760918
3.660500	1.759963
3.661000	1.761874
3.661500	1.761555
3.662000	1.760918
3.662500	1.760918
3.663000	1.761555
3.663500	1.761874
3.664000	1.760918
3.664500	1.761874
3.665000	1.760918
3.665500	1.761237
3.666000	1.760918
3.666500	1.760918
3.667000	1.760600
3.667500	1.760281
3.668000	1.761555
3.668500	1.761874
3.669000	1.759326
3.669500	1.760281
3.670000	1.762192
3.670500	1.761237
3.671000	1.757733
3.671500	1.759326
3.672000	1.763148
3.672500	1.761555
3.673000	1.758370
3.673500	1.759644
3.674000	1.763467
3.674500	1.760918
3.675000	1.758688
3.675500	1.759963
3.676000	1.762511
3.676500	1.760600
3.677000	1.758370
3.677500	1.760600
3.678000	1.761237
3.678500	1.759644
3.679000	1.759644
3.679500	1.760281
3.680000	1.760600
3.680500	1.759963
3.681000	1.759963
3.681500	1.760600
3.682000	1.759963
3.682500	1.760281
3.683000	1.760281
3.683500	1.759963
3.684000	1.759644
3.684500	1.760281
3.685000	1.760600
3.685500	1.758688
3.686000	1.759007
3.686500	1.761555
3.687000	1.760281
3.687500	1.758051
3.688000	1.758051
3.688500	1.761555
3.689000	1.760918
3.689500	1.757414
3.690000	1.759007
3.690500	1.761874
3.691000	1.761237
3.691500	1.757733
3.692000	1.759007
3.692500	1.762829
3.693000	1.760281
3.693500	1.758370
3.694000	1.761555
3.694500	1.761237
3.695000	1.760281
3.695500	1.759326
3.696000	1.759963
3.696500	1.759644
3.697000	1.759007
3.697500	1.759326
3.698000	1.759963
3.698500	1.759326
3.699000	1.759963
3.699500	1.761555
3.700000	1.761237
3.700500	1.760600
3.701000	1.759963
3.701500	1.760918
3.702000	1.759007
3.702500	1.759326
3.703000	1.761237
3.703500	1.760918
3.704000	1.758688
3.704500	1.759007
3.705000	1.762511
3.705500	1.760600
3.706000	1.757096
3.706500	1.759007
3.707000	1.762829
3.707500	1.759963
3.708000	1.758051
3.708500	1.759007
3.709000	1.763148
3.709500	1.759963
3.710000	1.757733
3.710500	1.759644
3.711000	1.761237
3.711500	1.759326
3.712000	1.759326
3.712500	1.759963
3.713000	1.760281
3.713500	1.759326
3.714000	1.759644
3.714500	1.759963
3.715000	1.759644
3.715500	1.759644
3.716000	1.758688
3.716500	1.759644
3.717000	1.759326
3.717500	1.759326
3.718000	1.759963
3.718500	1.759326
3.719000	1.758688
3.719500	1.761874
3.720000	1.759963
3.720500	1.757414
3.721000	1.758688
3.721500	1.762511
3.722000	1.760281
3.722500	1.758051
3.723000	1.759963
3.723500	1.762511
3.724000	1.760281
3.724500	1.757733
3.725000	1.759644
3.725500	1.762511
3.726000	1.759963
3.726500	1.757414
3.727000	1.759644
3.727500	1.761874
3.728000	1.760600
3.728500	1.759007
3.729000	1.761237
3.729500	1.761237
3.730000	1.759326
3.730500	1.759644
3.731000	1.759963
3.731500	1.759963
3.732000	1.760281
3.732500	1.760281
3.733000	1.760918
3.733500	1.760600
3.734000	1.759963
3.734500	1.761237
3.735000	1.759644
3.735500	1.759963
3.736000	1.761874
3.736500	1.760918
3.737000	1.758370
3.737500	1.759007
3.738000	1.762829
3.738500	1.761555
3.739000	1.757733
3.739500	1.758370
3.740000	1.763148
3.740500	1.761237
3.741000	1.757414
3.741500	1.759326
3.742000	1.763467
3.742500	1.760918
3.743000	1.759644
3.743500	1.759963
3.744000	1.761555
3.744500	1.760281
3.745000	1.759963
3.745500	1.761874
3.746000	1.761555
3.746500	1.759963
3.747000	1.760600
3.747500	1.761237
3.748000	1.759644
3.748500	1.760281
3.749000	1.759963
3.749500	1.760918
3.750000	1.760600
3.750500	1.760918
3.751000	1.760918
3.751500	1.759644
3.752000	1.760281
3.752500	1.762829
3.753000	1.761874
3.753500	1.758688
3.754000	1.760281
3.754500	1.763785
3.755000	1.762511
3.755500	1.758370
3.756000	1.759644
3.756500	1.763467
3.757000	1.761555
3.757500	1.758370
3.758000	1.759644
3.758500	1.763785
3.759000	1.761237
3.759500	1.758688
3.760000	1.759963
3.760500	1.762511
3.761000	1.761237
3.761500	1.759007
3.762000	1.760281
3.762500	1.762192
3.763000	1.760281
3.763500	1.759963
3.764000	1.760918
3.764500	1.760281
3.765000	1.759963
3.765500	1.760281
3.766000	1.760918
3.766500	1.760281
3.767000	1.759644
3.767500	1.759963
3.768000	1.760600
3.768500	1.759007
3.769000	1.759963
3.769500	1.759963
3.770000	1.759007
3.770500	1.759963
3.771000	1.760281
3.771500	1.759963
3.772000	1.759326
3.772500	1.759326
3.773000	1.760600
3.773500	1.760600
3.774000	1.756777
3.774500	1.758051
3.775000	1.762192
3.775500	1.759644
3.776000	1.756777
3.776500	1.759326
3.777000	1.762829
3.777500	1.759644
3.778000	1.757414
3.778500	1.759007
3.779000	1.761237
3.779500	1.759644
3.780000	1.758370
3.780500	1.759963
3.781000	1.760918
3.781500	1.759644
3.782000	1.759007
3.782500	1.760918
3.783000	1.759963
3.783500	1.758688
3.784000	1.759644
3.784500	1.759644
3.785000	1.760600
3.785500	1.759326
3.786000	1.759644
3.786500	1.760281
3.787000	1.759644
3.787500	1.760281
3.788000	1.760281
3.788500	1.758688
3.789000	1.759326
3.789500	1.761555
3.790000	1.760918
3.790500	1.757733
3.791000	1.758688
3.791500	1.761874
3.792000	1.760281
3.792500	1.758051
3.793000	1.759326
3.793500	1.762192
3.794000	1.760600
3.794500	1.757414
3.795000	1.758688
3.795500	1.761237
3.796000	1.760281
3.796500	1.758370
3.797000	1.760600
3.797500	1.762192
3.798000	1.759963
3.798500	1.758688
3.799000	1.759644
3.799500	1.760600
3.800000	1.759007
3.800500	1.759963
3.801000	1.761237
3.801500	1.759326
3.802000	1.759963
3.802500	1.759963
3.803000	1.759963
3.803500	1.759963
3.804000	1.760281
3.804500	1.760281
3.805000	1.759963
3.805500	1.759326
3.806000	1.760600
3.806500	1.760918
3.807000	1.758688
3.807500	1.759644
3.808000	1.762829
3.808500	1.760600
3.809000	1.758370
3.809500	1.759963
3.810000	1.761874
3.810500	1.760600
3.811000	1.757414
3.811500	1.759644
3.812000	1.762829
3.812500	1.760600
3.813000	1.758370
3.813500	1.759963
3.814000	1.761555
3.814500	1.759963
3.815000	1.758370
3.815500	1.759963
3.816000	1.761555
3.816500	1.759644
3.817000	1.759963
3.817500	1.759644
3.818000	1.760918
3.818500	1.760600
3.819000	1.760600
3.819500	1.760281
3.820000	1.760600
3.820500	1.760281
3.821000	1.760918
3.821500	1.759644
3.822000	1.759963
3.822500	1.761555
3.823000	1.761555
3.823500	1.759007
3.824000	1.759644
3.824500	1.762829
3.825000	1.760600
3.825500	1.758051
3.826000	1.759644
3.826500	1.762829
3.827000	1.760600
3.827500	1.757414
3.828000	1.759963
3.828500	1.763467
3.829000	1.761555
3.829500	1.757733
3.830000	1.760918
3.830500	1.762829
3.831000	1.760600
3.831500	1.759963
3.832000	1.760281
3.832500	1.761555
3.833000	1.760600
3.833500	1.759644
3.834000	1.760918
3.834500	1.759963
3.835000	1.759963
3.835500	1.759963
3.836000	1.760600
3.836500	1.760281
3.837000	1.759326
3.837500	1.759644
3.838000	1.759007
3.838500	1.759644
3.839000	1.759644
3.839500	1.760918
3.840000	1.759326
3.840500	1.759007
3.841000	1.761555
3.841500	1.760918
3.842000	1.758051
3.842500	1.759326
3.843000	1.762511
3.843500	1.759644
3.844000	1.756459
3.844500	1.758688
3.845000	1.762192
3.845500	1.759644
3.846000	1.756140
3.846500	1.759326
3.847000	1.761237
3.847500	1.759326
3.848000	1.757414
3.848500	1.759326
3.849000	1.760918
3.849500	1.759007
3.850000	1.758051
3.850500	1.759644
3.851000	1.760600
3.851500	1.759326
3.852000	1.759007
3.852500	1.759644
3.853000	1.759963
3.853500	1.758688
3.854000	1.759644
3.854500	1.759326
3.855000	1.759644
3.855500	1.759326
3.856000	1.759644
3.856500	1.758370
3.857000	1.759644
3.857500	1.759963
3.858000	1.759644
3.858500	1.758370
3.859000	1.758688
3.859500	1.761555
3.860000	1.760600
3.860500	1.757414
3.861000	1.758688
3.861500	1.762192
3.862000	1.759963
3.862500	1.756777
3.863000	1.759007
3.863500	1.761237
3.864000	1.759326
3.864500	1.756777
3.865000	1.758688
3.865500	1.760918
3.866000	1.758688
3.866500	1.757733
3.867000	1.759007
3.867500	1.760918
3.868000	1.758370
3.868500	1.757414
3.869000	1.758688
3.869500	1.759963
3.870000	1.758688
3.870500	1.758051
3.871000	1.759007
3.871500	1.758370
3.872000	1.758370
3.872500	1.759007
3.873000	1.758051
3.873500	1.759007
3.874000	1.758688
3.874500	1.759644
3.875000	1.759007
3.875500	1.758051
3.876000	1.759644
3.876500	1.759644
3.877000	1.757414
3.877500	1.757414
3.878000	1.761555
3.878500	1.759644
3.879000	1.756140
3.879500	1.758370
3.880000	1.761874
3.880500	1.759644
3.881000	1.756777
3.881500	1.757733
3.882000	1.762192
3.882500	1.760281
3.883000	1.757096
3.883500	1.758688
3.884000	1.761237
3.884500	1.759963
3.885000	1.758688
3.885500	1.760281
3.886000	1.760281
3.886500	1.759963
3.887000	1.759644
3.887500	1.759644
3.888000	1.760918
3.888500	1.759326
3.889000	1.759644
3.889500	1.760600
3.890000	1.759963
3.890500	1.759644
3.891000	1.760281
3.891500	1.760281
3.892000	1.759326
3.892500	1.760600
3.893000	1.761555
3.893500	1.758688
3.894000	1.758688
3.894500	1.761874
3.895000	1.761555
3.895500	1.759326
3.896000	1.758688
3.896500	1.762511
3.897000	1.760600
3.897500	1.758370
3.898000	1.759007
3.898500	1.762511
3.899000	1.761555
3.899500	1.757733
3.900000	1.759644
3.900500	1.762511
3.901000	1.760600
3.901500	1.758688
3.902000	1.760281
3.902500	1.762192
3.903000	1.760918
3.903500	1.759326
3.904000	1.760281
3.904500	1.760600
3.905000	1.759326
3.905500	1.759963
3.906000	1.759963
3.906500	1.760918
3.907000	1.759963
3.907500	1.759963
3.908000	1.759963
3.908500	1.760281
3.909000	1.759963
3.909500	1.760281
3.910000	1.759326
3.910500	1.759326
3.911000	1.762192
3.911500	1.761555
3.912000	1.758370
3.912500	1.758688
3.913000	1.761874
3.913500	1.760918
3.914000	1.757733
3.914500	1.759326
3.915000	1.762192
3.915500	1.760600
3.916000	1.757414
3.916500	1.759963
3.917000	1.762511
3.917500	1.759963
3.918000	1.757733
3.918500	1.759963
3.919000	1.761555
3.919500	1.759644
3.920000	1.758370
3.920500	1.760918
3.921000	1.760281
3.921500	1.759644
3.922000	1.759963
3.922500	1.761237
3.923000	1.760281
3.923500	1.759326
3.924000	1.759963
3.924500	1.760600
3.925000	1.759963
3.925500	1.760600
3.926000	1.760281
3.926500	1.759644
3.927000	1.759007
3.927500	1.760918
3.928000	1.760918
3.928500	1.759007
3.929000	1.759007
3.929500	1.762192
3.930000	1.761237
3.930500	1.756777
3.931000	1.759963
3.931500	1.763467
3.932000	1.761874
3.932500	1.758051
3.933000	1.759963
3.933500	1.763467
3.934000	1.761237
3.934500	1.758688
3.935000	1.760281
3.935500	1.762511
3.936000	1.760600
3.936500	1.759326
3.937000	1.760918
3.937500	1.760918
3.938000	1.759963
3.938500	1.759963
3.939000	1.760600
3.939500	1.760600
3.940000	1.760281
3.940500	1.761237
3.941000	1.760918
3.941500	1.759963
3.942000	1.760281
3.942500	1.761237
3.943000	1.759963
3.943500	1.760281
3.944000	1.761874
3.944500	1.762192
3.945000	1.759007
3.945500	1.760600
3.946000	1.762192
3.946500	1.761555
3.947000	1.758688
3.947500	1.759326
3.948000	1.763148
3.948500	1.761874
3.949000	1.757733
3.949500	1.760281
3.950000	1.763467
3.950500	1.759963
3.951000	1.758370
3.951500	1.759644
3.952000	1.761555
3.952500	1.759963
3.953000	1.759644
3.953500	1.761237
3.954000	1.761555
3.954500	1.759644
3.955000	1.759326
3.955500	1.761237
3.956000	1.760600
3.956500	1.759644
3.957000	1.760600
3.957500	1.760600
3.958000	1.759963
3.958500	1.759963
3.959000	1.761237
3.959500	1.759007
3.960000	1.760281
3.960500	1.762192
3.961000	1.760600
3.961500	1.758688
3.962000	1.759007
3.962500	1.762829
3.963000	1.761555
3.963500	1.757414
3.964000	1.759007
3.964500	1.762511
3.965000	1.759963
3.965500	1.757414
3.966000	1.759644
3.966500	1.761555
3.967000	1.760281
3.967500	1.757733
3.968000	1.759326
3.968500	1.761237
3.969000	1.759644
3.969500	1.758051
3.970000	1.759644
3.970500	1.760918
3.971000	1.759326
3.971500	1.759326
3.972000	1.760281
3.972500	1.760281
3.973000	1.759007
3.973500	1.760281
3.974000	1.759963
3.974500	1.759963
3.975000	1.760281
3.975500	1.759963
3.976000	1.759007
3.976500	1.758051
3.977000	1.759963
3.977500	1.759644
3.978000	1.757096
3.978500	1.758051
3.979000	1.761555
3.979500	1.759644
3.980000	1.757096
3.980500	1.758370
3.981000	1.761874
3.981500	1.759326
3.982000	1.756777
3.982500	1.759007
3.983000	1.762192
3.983500	1.758688
3.984000	1.757733
3.984500	1.759007
3.985000	1.760281
3.985500	1.759644
3.986000	1.758688
3.986500	1.759644
3.987000	1.760600
3.987500	1.758688
3.988000	1.758370
3.988500	1.759326
3.989000	1.759007
3.989500	1.758688
3.990000	1.758688
3.990500	1.759326
3.991000	1.759007
3.991500	1.759326
3.992000	1.759644
3.992500	1.758688
3.993000	1.758688
3.993500	1.760281
3.994000	1.759644
3.994500	1.758688
3.995000	1.759007
3.995500	1.761874
3.996000	1.760281
3.996500	1.757414
3.997000	1.759326
3.997500	1.762192
3.998000	1.761555
3.998500	1.757733
3.999000	1.759007
3.999500	1.762192
4.000000	1.760281
4.000500	1.758051
4.001000	1.759644
4.001500	1.761874
4.002000	1.760600
4.002500	1.758688
4.003000	1.760918
4.003500	1.760600
4.004000	1.759007
4.004500	1.759644
4.005000	1.760600
4.005500	1.759963
4.006000	1.759326
4.006500	1.760281
4.007000	1.760600
4.007500	1.759007
4.008000	1.759963
4.008500	1.759644
4.009000	1.759326
4.009500	1.759007
4.010000	1.760600
4.010500	1.760281
4.011000	1.758688
4.011500	1.759963
4.012000	1.762192
4.012500	1.761555
4.013000	1.758051
4.013500	1.758688
4.014000	1.763467
4.014500	1.760600
4.015000	1.757096
4.015500	1.759963
4.016000	1.762511
4.016500	1.760281
4.017000	1.758370
4.017500	1.760281
4.018000	1.761555
4.018500	1.759644
4.019000	1.759326
4.019500	1.760600
4.020000	1.760281
4.020500	1.759326
4.021000	1.759644
4.021500	1.760281
4.022000	1.759963
4.022500	1.759326
4.023000	1.759963
4.023500	1.759963
4.024000	1.759644
4.024500	1.760281
4.025000	1.760281
4.025500	1.759644
4.026000	1.759326
4.026500	1.760918
4.027000	1.761555
4.027500	1.757414
4.028000	1.758370
4.028500	1.762511
4.029000	1.760281
4.029500	1.757733
4.030000	1.759007
4.030500	1.763148
4.031000	1.760600
4.031500	1.756777
4.032000	1.759644
4.032500	1.762829
4.033000	1.759963
4.033500	1.758688
4.034000	1.760281
4.034500	1.761237
4.035000	1.759963
4.035500	1.759644
4.036000	1.760600
4.036500	1.760918
4.037000	1.759644
4.037500	1.759326
4.038000	1.760281
4.038500	1.759644
4.039000	1.760281
4.039500	1.759644
4.040000	1.759326
4.040500	1.759326
4.041000	1.760281
4.041500	1.759963
4.042000	1.759007
4.042500	1.759326
4.043000	1.761237
4.043500	1.760918
4.044000	1.758051
4.044500	1.758688
4.045000	1.762511
4.045500	1.760281
4.046000	1.757733
4.046500	1.759007
4.047000	1.763467
4.047500	1.760918
4.048000	1.757733
4.048500	1.759644
4.049000	1.763467
4.049500	1.761237
4.050000	1.758051
4.050500	1.759963
4.051000	1.763467
4.051500	1.760918
4.052000	1.758688
4.052500	1.760600
4.053000	1.760918
4.053500	1.760600
4.054000	1.759963
4.054500	1.761555
4.055000	1.759963
4.055500	1.760281
4.056000	1.761237
4.056500	1.760281
4.057000	1.759644
4.057500	1.761237
4.058000	1.759963
4.058500	1.759644
4.059000	1.759644
4.059500	1.762192
4.060000	1.761555
4.060500	1.758688
4.061000	1.759644
4.061500	1.763148
4.062000	1.761237
4.062500	1.757733
4.063000	1.759326
4.063500	1.763148
4.064000	1.761237
4.064500	1.757414
4.065000	1.759963
4.065500	1.763148
4.066000	1.761555
4.066500	1.758370
4.067000	1.759963
4.067500	1.762511
4.068000	1.759644
4.068500	1.758370
4.069000	1.760281
4.069500	1.760918
4.070000	1.759963
4.070500	1.759326
4.071000	1.760600
4.071500	1.760281
4.072000	1.760918
4.072500	1.759644
4.073000	1.760281
4.073500	1.759326
4.074000	1.759644
4.074500	1.760281
4.075000	1.759326
4.075500	1.759326
4.076000	1.760918
4.076500	1.760281
4.077000	1.758370
4.077500	1.758688
4.078000	1.761555
4.078500	1.761237
4.079000	1.757414
4.079500	1.759326
4.080000	1.762192
4.080500	1.760918
4.081000	1.757414
4.081500	1.759326
4.082000	1.762511
4.082500	1.760600
4.083000	1.757414
4.083500	1.759963
4.084000	1.762511
4.084500	1.760281
4.085000	1.757414
4.085500	1.759326
4.086000	1.761555
4.086500	1.759644
4.087000	1.757733
4.087500	1.759644
4.088000	1.760281
4.088500	1.759326
4.089000	1.758688
4.089500	1.760281
4.090000	1.759963
4.090500	1.758370
4.091000	1.759644
4.091500	1.760281
4.092000	1.759007
4.092500	1.760281
4.093000	1.759963
4.093500	1.759326
4.094000	1.758688
4.094500	1.761237
4.095000	1.760600
4.095500	1.759326
4.096000	1.759007
4.096500	1.761874
4.097000	1.761237
4.097500	1.758688
4.098000	1.759007
4.098500	1.761874
4.099000	1.760918
4.099500	1.758051
4.100000	1.759644
4.100500	1.762511
4.101000	1.760281
4.101500	1.757414
4.102000	1.759644
4.102500	1.763148
4.103000	1.761555
4.103500	1.757733
4.104000	1.759963
4.104500	1.762511
4.105000	1.760281
4.105500	1.759007
4.106000	1.760918
4.106500	1.761237
4.107000	1.760281
4.107500	1.759963
4.108000	1.760918
4.108500	1.760600
4.109000	1.759963
4.109500	1.759644
4.110000	1.761237
4.110500	1.759963
4.111000	1.760600
4.111500	1.760600
4.112000	1.759963
4.112500	1.759963
4.113000	1.761237
4.113500	1.760918
4.114000	1.759644
4.114500	1.759963
4.115000	1.762511
4.115500	1.761555
4.116000	1.759007
4.116500	1.759644
4.117000	1.763148
4.117500	1.761874
4.118000	1.758370
4.118500	1.759963
4.119000	1.763785
4.119500	1.760600
4.120000	1.758370
4.120500	1.759644
4.121000	1.763148
4.121500	1.760281
4.122000	1.759007
4.122500	1.760600
4.123000	1.761555
4.123500	1.760600
4.124000	1.759326
4.124500	1.761237
4.125000	1.761555
4.125500	1.759644
4.126000	1.759326
4.126500	1.760600
4.127000	1.761555
4.127500	1.759644
4.128000	1.761237
4.128500	1.761237
4.129000	1.759963
4.129500	1.760918
4.130000	1.761237
4.130500	1.759644
4.131000	1.759644
4.131500	1.762192
4.132000	1.761237
4.132500	1.759326
4.133000	1.760281
4.133500	1.764104
4.134000	1.761555
4.134500	1.757414
4.135000	1.759644
4.135500	1.763148
4.136000	1.761555
4.136500	1.757414
4.137000	1.759007
4.137500	1.762511
4.138000	1.761555
4.138500	1.757733
4.139000	1.759644
4.139500	1.762192
4.140000	1.760600
4.140500	1.759644
4.141000	1.760281
4.141500	1.761237
4.142000	1.759963
4.142500	1.759963
4.143000	1.760918
4.143500	1.760600
4.144000	1.759963
4.144500	1.760918
4.145000	1.761555
4.145500	1.759644
4.146000	1.759644
4.146500	1.760918
4.147000	1.759963
4.147500	1.760281
4.148000	1.761237
4.148500	1.760918
4.149000	1.759007
4.149500	1.759326
4.150000	1.762829
4.150500	1.760600
4.151000	1.757414
4.151500	1.758688
4.152000	1.763467
4.152500	1.762192
4.153000	1.758370
4.153500	1.759963
4.154000	1.762829
4.154500	1.760600
4.155000	1.758370
4.155500	1.760600
4.156000	1.762511
4.156500	1.761555
4.157000	1.759326
4.157500	1.759963
4.158000	1.762192
4.158500	1.760281
4.159000	1.760281
4.159500	1.761237
4.160000	1.761237
4.160500	1.759644
4.161000	1.760281
4.161500	1.759963
4.162000	1.759963
4.162500	1.759963
4.163000	1.761237
4.163500	1.760281
4.164000	1.759963
4.164500	1.760918
4.165000	1.760918
4.165500	1.759963
4.166000	1.759963
4.166500	1.761555
4.167000	1.760918
4.167500	1.759007
4.168000	1.759644
4.168500	1.761555
4.169000	1.761555
4.169500	1.757733
4.170000	1.759326
4.170500	1.762511
4.171000	1.761237
4.171500	1.757414
4.172000	1.759644
4.172500	1.762829
4.173000	1.760600
4.173500	1.757733
4.174000	1.759963
4.174500	1.762192
4.175000	1.759326
4.175500	1.758688
4.176000	1.759007
4.176500	1.760281
4.177000	1.759326
4.177500	1.759007
4.178000	1.760600
4.178500	1.759644
4.179000	1.759644
4.179500	1.759963
4.180000	1.759963
4.180500	1.759326
4.181000	1.759963
4.181500	1.759644
4.182000	1.759326
4.182500	1.758688
4.183000	1.760281
4.183500	1.759963
4.184000	1.758370
4.184500	1.758688
4.185000	1.761555
4.185500	1.760600
4.186000	1.756777
4.186500	1.757733
4.187000	1.762192
4.187500	1.759963
4.188000	1.756777
4.188500	1.759007
4.189000	1.762511
4.189500	1.760281
4.190000	1.757414
4.190500	1.759007
4.191000	1.761237
4.191500	1.759007
4.192000	1.758051
4.192500	1.759644
4.193000	1.761555
4.193500	1.759644
4.194000	1.758370
4.194500	1.759963
4.195000	1.759644
4.195500	1.759007
4.196000	1.760281
4.196500	1.759963
4.197000	1.759963
4.197500	1.759644
4.198000	1.760281
4.198500	1.758688
4.199000	1.759326
4.199500	1.760281
4.200000	1.760918
4.200500	1.759644
4.201000	1.759326
4.201500	1.762192
4.202000	1.761237
4.202500	1.758370
4.203000	1.759007
4.203500	1.762511
4.204000	1.760918
4.204500	1.758370
4.205000	1.759326
4.205500	1.763467
4.206000	1.759963
4.206500	1.757733
4.207000	1.759963
4.207500	1.762511
4.208000	1.759644
4.208500	1.759644
4.209000	1.759963
4.209500	1.761237
4.210000	1.760281
4.210500	1.759644
4.211000	1.761237
4.211500	1.761237
4.212000	1.759963
4.212500	1.760918
4.213000	1.760918
4.213500	1.760918
4.214000	1.761555
4.214500	1.762192
4.215000	1.760600
4.215500	1.759963
4.216000	1.762511
4.216500	1.762192
4.217000	1.758688
4.217500	1.759963
4.218000	1.763148
4.218500	1.762192
4.219000	1.759007
4.219500	1.760918
4.220000	1.764422
4.220500	1.761874
4.221000	1.758370
4.221500	1.760600
4.222000	1.763785
4.222500	1.761874
4.223000	1.759007
4.223500	1.762192
4.224000	1.763785
4.224500	1.761874
4.225000	1.760600
4.225500	1.763148
4.226000	1.763467
4.226500	1.761555
4.227000	1.760918
4.227500	1.762192
4.228000	1.761555
4.228500	1.761555
4.229000	1.762511
4.229500	1.762192
4.230000	1.761237
4.230500	1.762192
4.231000	1.762829
4.231500	1.761555
4.232000	1.761237
4.232500	1.762829
4.233000	1.762192
4.233500	1.759963
4.234000	1.760281
4.234500	1.764422
4.235000	1.761874
4.235500	1.758688
4.236000	1.760918
4.236500	1.764741
4.237000	1.762511
4.237500	1.759007
4.238000	1.761874
4.238500	1.763785
4.239000	1.761555
4.239500	1.759963
4.240000	1.761555
4.240500	1.763148
4.241000	1.761237
4.241500	1.759963
4.242000	1.761555
4.242500	1.762511
4.243000	1.760281
4.243500	1.760918
4.244000	1.761874
4.244500	1.761874
4.245000	1.761237
4.245500	1.762192
4.246000	1.762511
4.246500	1.761555
4.247000	1.761555
4.247500	1.761874
4.248000	1.761237
4.248500	1.761237
4.249000	1.762511
4.249500	1.761874
4.250000	1.760281
4.250500	1.760281
4.251000	1.763785
4.251500	1.762829
4.252000	1.759007
4.252500	1.759963
4.253000	1.763785
4.253500	1.761874
4.254000	1.759644
4.254500	1.760281
4.255000	1.763467
4.255500	1.761237
4.256000	1.758370
4.256500	1.760281
4.257000	1.763467
4.257500	1.761555
4.258000	1.759644
4.258500	1.761874
4.259000	1.762829
4.259500	1.760918
4.260000	1.760281
4.260500	1.761555
4.261000	1.761874
4.261500	1.761237
4.262000	1.760600
4.262500	1.762192
4.263000	1.760918
4.263500	1.761237
4.264000	1.760918
4.264500	1.761555
4.265000	1.759963
4.265500	1.761555
4.266000	1.760600
4.266500	1.760281
4.267000	1.760918
4.267500	1.761555
4.268000	1.761874
4.268500	1.759326
4.269000	1.759963
4.269500	1.762511
4.270000	1.761237
4.270500	1.758051
4.271000	1.760281
4.271500	1.764104
4.272000	1.760918
4.272500	1.758370
4.273000	1.760281
4.273500	1.763467
4.274000	1.761555
4.274500	1.758051
4.275000	1.759963
4.275500	1.763148
4.276000	1.760281
4.276500	1.759644
4.277000	1.760918
4.277500	1.761874
4.278000	1.760918
4.278500	1.759963
4.279000	1.760918
4.279500	1.761237
4.280000	1.760918
4.280500	1.760600
4.281000	1.760281
4.281500	1.760281
4.282000	1.759644
4.282500	1.760918
4.283000	1.761237
4.283500	1.760600
4.284000	1.760918
4.284500	1.760918
4.285000	1.759963
4.285500	1.760281
4.286000	1.761555
4.286500	1.760918
4.287000	1.759007
4.287500	1.759644
4.288000	1.763467
4.288500	1.761237
4.289000	1.759007
4.289500	1.759963
4.290000	1.764104
4.290500	1.761555
4.291000	1.757733
4.291500	1.759007
4.292000	1.763467
4.292500	1.760281
4.293000	1.759007
4.293500	1.760918
4.294000	1.762829
4.294500	1.761237
4.295000	1.759326
4.295500	1.761237
4.296000	1.760600
4.296500	1.759963
4.297000	1.760281
4.297500	1.760918
4.298000	1.760918
4.298500	1.761237
4.299000	1.760281
4.299500	1.761874
4.300000	1.760281
4.300500	1.760918
4.301000	1.761874
4.301500	1.760600
4.302000	1.760281
4.302500	1.762829
4.303000	1.761237
4.303500	1.760281
4.304000	1.760281
4.304500	1.763467
4.305000	1.761237
4.305500	1.758051
4.306000	1.759326
4.306500	1.763467
4.307000	1.761874
4.307500	1.758370
4.308000	1.759963
4.308500	1.764104
4.309000	1.760918
4.309500	1.758688
4.310000	1.760281
4.310500	1.762511
4.311000	1.760918
4.311500	1.759326
4.312000	1.760918
4.312500	1.762511
4.313000	1.760281
4.313500	1.760600
4.314000	1.761555
4.314500	1.761237
4.315000	1.760918
4.315500	1.760281
4.316000	1.761874
4.316500	1.760600
4.317000	1.761237
4.317500	1.761555
4.318000	1.761237
4.318500	1.760918
4.319000	1.761555
4.319500	1.760918
4.320000	1.759963
4.320500	1.759963
4.321000	1.763148
4.321500	1.762192
4.322000	1.758688
4.322500	1.760281
4.323000	1.763148
4.323500	1.762192
4.324000	1.758051
4.324500	1.760600
4.325000	1.763148
4.325500	1.761874
4.326000	1.758051
4.326500	1.760600
4.327000	1.763467
4.327500	1.762192
4.328000	1.758688
4.328500	1.761237
4.329000	1.762511
4.329500	1.760281
4.330000	1.759326
4.330500	1.761237
4.331000	1.761874
4.331500	1.761237
4.332000	1.760281
4.332500	1.761874
4.333000	1.761555
4.333500	1.760600
4.334000	1.762511
4.334500	1.760281
4.335000	1.760600
4.335500	1.760600
4.336000	1.761874
4.336500	1.759963
4.337000	1.759007
4.337500	1.763148
4.338000	1.761874
4.338500	1.759007
4.339000	1.759963
4.339500	1.762829
4.340000	1.761874
4.340500	1.758370
4.341000	1.759644
4.341500	1.763467
4.342000	1.760918
4.342500	1.757733
4.343000	1.760281
4.343500	1.763467
4.344000	1.761237
4.344500	1.758370
4.345000	1.761874
4.345500	1.763148
4.346000	1.760918
4.346500	1.759963
4.347000	1.760918
4.347500	1.762511
4.348000	1.761555
4.348500	1.760918
4.349000	1.761237
4.349500	1.761555
4.350000	1.760281
4.350500	1.760281
4.351000	1.761555
4.351500	1.761555
4.352000	1.761555
4.352500	1.761874
4.353000	1.761237
4.353500	1.760918
4.354000	1.761555
4.354500	1.761874
4.355000	1.760281
4.355500	1.760281
4.356000	1.762192
4.356500	1.762511
4.357000	1.760281
4.357500	1.760281
4.358000	1.763785
4.358500	1.762192
4.359000	1.759007
4.359500	1.760918
4.360000	1.763785
4.360500	1.762829
4.361000	1.758370
4.361500	1.760281
4.362000	1.764104
4.362500	1.761555
4.363000	1.759326
4.363500	1.761555
4.364000	1.763467
4.364500	1.761874
4.365000	1.760281
4.365500	1.761237
4.366000	1.762511
4.366500	1.760918
4.367000	1.761237
4.367500	1.762192
4.368000	1.762192
4.368500	1.761237
4.369000	1.761874
4.369500	1.761874
4.370000	1.761555
4.370500	1.759963
4.371000	1.761237
4.371500	1.761237
4.372000	1.761237
4.372500	1.762192
4.373000	1.761874
4.373500	1.761237
4.374000	1.759644
4.374500	1.763148
4.375000	1.762192
4.375500	1.759963
4.376000	1.760600
4.376500	1.764104
4.377000	1.762829
4.377500	1.758051
4.378000	1.760600
4.378500	1.764422
4.379000	1.761874
4.379500	1.759963
4.380000	1.760918
4.380500	1.764104
4.381000	1.761237
4.381500	1.760600
4.382000	1.761555
4.382500	1.762511
4.383000	1.761874
4.383500	1.760918
4.384000	1.761555
4.384500	1.761555
4.385000	1.760918
4.385500	1.761237
4.386000	1.762192
4.386500	1.761237
4.387000	1.760918
4.387500	1.761874
4.388000	1.760918
4.388500	1.760918
4.389000	1.761874
4.389500	1.762192
4.390000	1.759963
4.390500	1.759644
4.391000	1.763148
4.391500	1.761874
4.392000	1.759326
4.392500	1.760600
4.393000	1.763148
4.393500	1.761874
4.394000	1.758688
4.394500	1.760281
4.395000	1.764104
4.395500	1.761237
4.396000	1.758370
4.396500	1.760281
4.397000	1.763148
4.397500	1.760600
4.398000	1.758370
4.398500	1.761874
4.399000	1.762511
4.399500	1.760600
4.400000	1.760281
4.400500	1.760918
4.401000	1.761237
4.401500	1.760918
4.402000	1.760600
4.402500	1.761555
4.403000	1.761237
4.403500	1.760281
4.404000	1.761555
4.404500	1.760281
4.405000	1.760918
4.405500	1.760918
4.406000	1.761555
4.406500	1.760281
4.407000	1.759326
4.407500	1.761874
4.408000	1.761555
4.408500	1.759326
4.409000	1.759007
4.409500	1.762829
4.410000	1.761874
4.410500	1.758370
4.411000	1.759963
4.411500	1.763467
4.412000	1.760918
4.412500	1.757414
4.413000	1.759963
4.413500	1.762511
4.414000	1.761237
4.414500	1.757414
4.415000	1.759326
4.415500	1.762192
4.416000	1.759963
4.416500	1.758370
4.417000	1.760600
4.417500	1.761555
4.418000	1.760600
4.418500	1.759326
4.419000	1.760918
4.419500	1.760600
4.420000	1.759326
4.420500	1.760600
4.421000	1.760281
4.421500	1.759644
4.422000	1.759963
4.422500	1.760281
4.423000	1.760281
4.423500	1.760281
4.424000	1.761237
4.424500	1.761555
4.425000	1.758688
4.425500	1.759326
4.426000	1.761874
4.426500	1.760600
4.427000	1.757733
4.427500	1.758688
4.428000	1.762511
4.428500	1.760918
4.429000	1.757733
4.429500	1.758688
4.430000	1.763148
4.430500	1.760918
4.431000	1.757414
4.431500	1.759963
4.432000	1.762192
4.432500	1.760281
4.433000	1.758370
4.433500	1.760918
4.434000	1.761555
4.434500	1.760281
4.435000	1.759963
4.435500	1.760600
4.436000	1.759963
4.436500	1.759644
4.437000	1.760281
4.437500	1.760600
4.438000	1.760281
4.438500	1.759963
4.439000	1.759963
4.439500	1.760600
4.440000	1.759644
4.440500	1.761237
4.441000	1.760600
4.441500	1.759007
4.442000	1.759326
4.442500	1.762192
4.443000	1.760918
4.443500	1.758370
4.444000	1.759963
4.444500	1.762829
4.445000	1.760600
4.445500	1.757414
4.446000	1.759644
4.446500	1.762829
4.447000	1.761237
4.447500	1.757414
4.448000	1.760600
4.448500	1.761874
4.449000	1.760281
4.449500	1.759644
4.450000	1.760918
4.450500	1.761874
4.451000	1.759963
4.451500	1.759644
4.452000	1.760918
4.452500	1.761237
4.453000	1.759326
4.453500	1.760281
4.454000	1.760281
4.454500	1.760918
4.455000	1.759963
4.455500	1.760918
4.456000	1.760918
4.456500	1.759326
4.457000	1.760600
4.457500	1.760600
4.458000	1.759644
4.458500	1.759644
4.459000	1.761874
4.459500	1.760918
4.460000	1.758370
4.460500	1.759963
4.461000	1.762511
4.461500	1.760918
4.462000	1.757414
4.462500	1.759963
4.463000	1.762192
4.463500	1.762511
4.464000	1.758051
4.464500	1.759644
4.465000	1.763467
4.465500	1.761237
4.466000	1.758051
4.466500	1.760600
4.467000	1.762511
4.467500	1.760281
4.468000	1.759007
4.468500	1.761237
4.469000	1.761874
4.469500	1.760281
4.470000	1.760600
4.470500	1.761555
4.471000	1.761874
4.471500	1.760600
4.472000	1.760918
4.472500	1.761237
4.473000	1.760281
4.473500	1.759963
4.474000	1.760600
4.474500	1.760918
4.475000	1.760281
4.475500	1.761555
4.476000	1.761555
4.476500	1.760281
4.477000	1.760281
4.477500	1.763148
4.478000	1.762192
4.478500	1.758051
4.479000	1.759326
4.479500	1.763467
4.480000	1.761555
4.480500	1.758370
4.481000	1.759963
4.481500	1.763785
4.482000	1.761874
4.482500	1.758688
4.483000	1.760281
4.483500	1.762511
4.484000	1.761237
4.484500	1.759326
4.485000	1.761237
4.485500	1.762192
4.486000	1.759644
4.486500	1.759326
4.487000	1.761555
4.487500	1.761555
4.488000	1.760918
4.488500	1.760918
4.489000	1.761555
4.489500	1.760918
4.490000	1.760600
4.490500	1.760281
4.491000	1.760918
4.491500	1.759963
4.492000	1.760600
4.492500	1.760600
4.493000	1.759963
4.493500	1.759963
4.494000	1.762511
4.494500	1.761237
4.495000	1.759007
4.495500	1.758688
4.496000	1.762829
4.496500	1.760600
4.497000	1.758051
4.497500	1.759963
4.498000	1.763467
4.498500	1.760918
4.499000	1.757414
4.499500	1.760600
4.500000	1.763148
4.500500	1.761237
4.501000	1.758051
4.501500	1.759644
4.502000	1.762511
4.502500	1.760281
4.503000	1.759007
4.503500	1.761237
4.504000	1.761874
4.504500	1.759963
4.505000	1.759644
4.505500	1.760918
4.506000	1.761237
4.506500	1.759326
4.507000	1.759963
4.507500	1.760600
4.508000	1.759963
4.508500	1.760600
4.509000	1.760281
4.509500	1.760281
4.510000	1.759644
4.510500	1.759963
4.511000	1.760600
4.511500	1.759963
4.512000	1.759007
4.512500	1.761874
4.513000	1.761237
4.513500	1.759963
4.514000	1.759963
4.514500	1.762829
4.515000	1.761237
4.515500	1.758370
4.516000	1.759963
4.516500	1.762511
4.517000	1.761874
4.517500	1.757414
4.518000	1.760281
4.518500	1.763148
4.519000	1.758051
4.519500	1.758688
4.520000	1.761237
4.520500	1.761874
4.521000	1.760600
4.521500	1.759326
4.522000	1.760918
4.522500	1.761555
4.523000	1.759963
4.523500	1.759326
4.524000	1.761237
4.524500	1.759963
4.525000	1.759963
4.525500	1.759963
4.526000	1.760918
4.526500	1.759963
4.527000	1.760281
4.527500	1.760281
4.528000	1.760918
4.528500	1.760281
4.529000	1.761237
4.529500	1.761555
4.530000	1.758688
4.530500	1.759963
4.531000	1.762511
4.531500	1.761874
4.532000	1.758370
4.532500	1.760281
4.533000	1.762192
4.533500	1.761555
4.534000	1.757414
4.534500	1.759326
4.535000	1.763148
4.535500	1.760600
4.536000	1.757733
4.536500	1.760281
4.537000	1.762829
4.537500	1.760281
4.538000	1.758688
4.538500	1.760918
4.539000	1.762511
4.539500	1.761555
4.540000	1.759644
4.540500	1.761237
4.541000	1.761874
4.541500	1.759963
4.542000	1.759963
4.542500	1.761237
4.543000	1.760918
4.543500	1.759963
4.544000	1.760918
4.544500	1.761237
4.545000	1.760281
4.545500	1.760600
4.546000	1.761555
4.546500	1.760600
4.547000	1.761555
4.547500	1.761555
4.548000	1.761874
4.548500	1.759963
4.549000	1.759644
4.549500	1.762829
4.550000	1.762192
4.550500	1.759007
4.551000	1.760281
4.551500	1.763467
4.552000	1.761874
4.552500	1.758688
4.553000	1.760918
4.553500	1.763785
4.554000	1.761555
4.554500	1.759007
4.555000	1.760918
4.555500	1.763785
4.556000	1.762511
4.556500	1.759326
4.557000	1.761555
4.557500	1.763785
4.558000	1.761237
4.558500	1.759963
4.559000	1.761874
4.559500	1.762829
4.560000	1.760918
4.560500	1.759963
4.561000	1.761874
4.561500	1.761874
4.562000	1.760281
4.562500	1.761237
4.563000	1.762511
4.563500	1.761237
4.564000	1.761555
4.564500	1.761874
4.565000	1.761555
4.565500	1.760918
4.566000	1.760600
4.566500	1.763148
4.567000	1.760281
4.567500	1.760281
4.568000	1.763785
4.568500	1.762511
4.569000	1.760281
4.569500	1.760918
4.570000	1.764422
4.570500	1.762192
4.571000	1.758688
4.571500	1.760600
4.572000	1.763785
4.572500	1.763148
4.573000	1.759007
4.573500	1.760918
4.574000	1.765059
4.574500	1.761874
4.575000	1.759007
4.575500	1.760600
4.576000	1.764104
4.576500	1.761555
4.577000	1.759963
4.577500	1.762511
4.578000	1.762829
4.578500	1.761237
4.579000	1.759963
4.579500	1.762511
4.580000	1.761555
4.580500	1.761555
4.581000	1.760600
4.581500	1.761555
4.582000	1.761555
4.582500	1.760918
4.583000	1.760918
4.583500	1.760918
4.584000	1.759963
4.584500	1.760918
4.585000	1.761555
4.585500	1.759963
4.586000	1.761237
4.586500	1.761874
4.587000	1.762192
4.587500	1.760600
4.588000	1.760281
4.588500	1.763785
4.589000	1.762192
4.589500	1.758051
4.590000	1.759963
4.590500	1.764422
4.591000	1.761237
4.591500	1.758051
4.592000	1.760600
4.592500	1.763467
4.593000	1.760918
4.593500	1.758370
4.594000	1.760600
4.594500	1.763148
4.595000	1.760918
4.595500	1.759007
4.596000	1.761237
4.596500	1.761874
4.597000	1.760918
4.597500	1.759963
4.598000	1.761874
4.598500	1.761555
4.599000	1.759963
4.599500	1.760918
4.600000	1.760600
4.600500	1.760918
4.601000	1.760281
4.601500	1.761237
4.602000	1.760600
4.602500	1.760281
4.603000	1.761237
4.603500	1.762192
4.604000	1.759963
4.604500	1.759963
4.605000	1.762511
4.605500	1.761555
4.606000	1.758688
4.606500	1.760281
4.607000	1.763148
4.607500	1.761237
4.608000	1.758051
4.608500	1.760600
4.609000	1.763148
4.609500	1.761555
4.610000	1.757733
4.610500	1.760281
4.611000	1.763785
4.611500	1.761237
4.612000	1.759644
4.612500	1.761237
4.613000	1.762829
4.613500	1.760918
4.614000	1.759326
4.614500	1.760918
4.615000	1.761874
4.615500	1.759963
4.616000	1.759963
4.616500	1.761237
4.617000	1.761237
4.617500	1.760281
4.618000	1.760918
4.618500	1.761237
4.619000	1.760600
4.619500	1.760600
4.620000	1.761237
4.620500	1.760918
4.621000	1.761237
4.621500	1.762829
4.622000	1.761874
4.622500	1.759644
4.623000	1.759644
4.623500	1.762511
4.624000	1.762511
4.624500	1.758688
4.625000	1.759963
4.625500	1.763785
4.626000	1.762511
4.626500	1.759007
4.627000	1.760918
4.627500	1.764104
4.628000	1.761555
4.628500	1.759326
4.629000	1.760918
4.629500	1.763148
4.630000	1.761874
4.630500	1.759644
4.631000	1.761874
4.631500	1.762511
4.632000	1.761237
4.632500	1.759644
4.633000	1.762192
4.633500	1.762829
4.634000	1.760918
4.634500	1.761237
4.635000	1.763148
4.635500	1.761874
4.636000	1.761874
4.636500	1.762511
4.637000	1.761874
4.637500	1.761874
4.638000	1.762829
4.638500	1.762192
4.639000	1.761237
4.639500	1.761555
4.640000	1.762829
4.640500	1.762192
4.641000	1.760281
4.641500	1.760918
4.642000	1.763785
4.642500	1.762511
4.643000	1.759326
4.643500	1.761237
4.644000	1.764104
4.644500	1.762511
4.645000	1.758370
4.645500	1.760600
4.646000	1.764104
4.646500	1.761237
4.647000	1.758370
4.647500	1.760281
4.648000	1.763785
4.648500	1.761874
4.649000	1.759326
4.649500	1.761555
4.650000	1.762829
4.650500	1.760918
4.651000	1.759963
4.651500	1.760281
4.652000	1.761237
4.652500	1.759963
4.653000	1.760281
4.653500	1.760918
4.654000	1.761237
4.654500	1.759963
4.655000	1.761237
4.655500	1.761555
4.656000	1.760281
4.656500	1.760281
4.657000	1.760918
4.657500	1.760281
4.658000	1.760918
4.658500	1.761555
4.659000	1.760918
4.659500	1.760281
4.660000	1.760281
4.660500	1.761874
4.661000	1.761555
4.661500	1.758370
4.662000	1.759644
4.662500	1.763148
4.663000	1.761555
4.663500	1.758051
4.664000	1.759644
4.664500	1.762829
4.665000	1.760600
4.665500	1.756459
4.666000	1.759644
4.666500	1.762829
4.667000	1.761237
4.667500	1.758051
4.668000	1.759963
4.668500	1.761874
4.669000	1.760281
4.669500	1.758051
4.670000	1.759963
4.670500	1.761555
4.671000	1.759326
4.671500	1.759326
4.672000	1.760600
4.672500	1.760600
4.673000	1.759963
4.673500	1.760600
4.674000	1.760918
4.674500	1.759963
4.675000	1.759963
4.675500	1.760281
4.676000	1.760600
4.676500	1.759963
4.677000	1.760600
4.677500	1.760918
4.678000	1.759963
4.678500	1.759007
4.679000	1.761555
4.679500	1.761874
4.680000	1.759007
4.680500	1.759644
4.681000	1.763148
4.681500	1.761555
4.682000	1.758051
4.682500	1.760281
4.683000	1.763148
4.683500	1.761874
4.684000	1.757733
4.684500	1.759326
4.685000	1.762511
4.685500	1.760600
4.686000	1.758688
4.686500	1.759326
4.687000	1.761874
4.687500	1.760600
4.688000	1.758370
4.688500	1.760918
4.689000	1.761237
4.689500	1.760281
4.690000	1.759963
4.690500	1.760918
4.691000	1.760918
4.691500	1.759326
4.692000	1.759326
4.692500	1.760600
4.693000	1.759963
4.693500	1.759963
4.694000	1.761555
4.694500	1.760281
4.695000	1.759644
4.695500	1.760600
4.696000	1.760600
4.696500	1.759644
4.697000	1.759963
4.697500	1.761874
4.698000	1.761555
4.698500	1.759644
4.699000	1.760281
4.699500	1.762511
4.700000	1.761237
4.700500	1.758051
4.701000	1.759644
4.701500	1.762829
4.702000	1.761555
4.702500	1.757414
4.703000	1.759007
4.703500	1.763785
4.704000	1.761237
4.704500	1.758370
4.705000	1.759644
4.705500	1.762829
4.706000	1.761237
4.706500	1.759007
4.707000	1.760918
4.707500	1.761237
4.708000	1.760281
4.708500	1.759963
4.709000	1.760918
4.709500	1.759963
4.710000	1.760600
4.710500	1.760281
4.711000	1.761237
4.711500	1.759963
4.712000	1.759963
4.712500	1.762192
4.713000	1.760918
4.713500	1.760600
4.714000	1.761237
4.714500	1.761237
4.715000	1.759644
4.715500	1.759963
4.716000	1.762192
4.716500	1.761555
4.717000	1.759007
4.717500	1.760600
4.718000	1.763148
4.718500	1.762192
4.719000	1.758370
4.719500	1.760281
4.720000	1.764104
4.720500	1.761874
4.721000	1.758051
4.721500	1.759963
4.722000	1.763785
4.722500	1.761874
4.723000	1.759007
4.723500	1.760281
4.724000	1.762192
4.724500	1.761237
4.725000	1.759326
4.725500	1.763148
4.726000	1.762829
4.726500	1.760918
4.727000	1.760918
4.727500	1.761555
4.728000	1.761874
4.728500	1.760600
4.729000	1.760600
4.729500	1.762192
4.730000	1.760918
4.730500	1.761237
4.731000	1.761555
4.731500	1.761237
4.732000	1.761555
4.732500	1.761874
4.733000	1.762511
4.733500	1.761555
4.734000	1.760918
4.734500	1.763148
4.735000	1.761237
4.735500	1.759326
4.736000	1.760918
4.736500	1.763785
4.737000	1.762511
4.737500	1.758688
4.738000	1.760600
4.738500	1.764422
4.739000	1.761874
4.739500	1.759644
4.740000	1.760918
4.740500	1.764741
4.741000	1.762192
4.741500	1.759007
4.742000	1.761555
4.742500	1.763785
4.743000	1.761555
4.743500	1.759963
4.744000	1.762511
4.744500	1.762511
4.745000	1.760600
4.745500	1.760281
4.746000	1.762829
4.746500	1.760918
4.747000	1.760918
4.747500	1.761874
4.748000	1.761555
4.748500	1.761237
4.749000	1.761874
4.749500	1.761555
4.750000	1.761237
4.750500	1.760918
4.751000	1.761237
4.751500	1.761874
4.752000	1.760281
4.752500	1.760600
4.753000	1.762829
4.753500	1.761555
4.754000	1.759007
4.754500	1.759644
4.755000	1.763467
4.755500	1.760918
4.756000	1.758370
4.756500	1.759963
4.757000	1.763148
4.757500	1.761237
4.758000	1.758051
4.758500	1.759963
4.759000	1.762829
4.759500	1.760281
4.760000	1.757733
4.760500	1.760281
4.761000	1.762511
4.761500	1.760600
4.762000	1.759644
4.762500	1.760600
4.763000	1.760918
4.763500	1.759326
4.764000	1.759963
4.764500	1.759644
4.765000	1.759963
4.765500	1.758370
4.766000	1.760600
4.766500	1.760918
4.767000	1.759644
4.767500	1.759007
4.768000	1.759963
4.768500	1.759644
4.769000	1.759007
4.769500	1.760918
4.770000	1.760600
4.770500	1.758051
4.771000	1.759326
4.771500	1.761555
4.772000	1.760600
4.772500	1.758688
4.773000	1.759007
4.773500	1.762511
4.774000	1.761237
4.774500	1.757414
4.775000	1.758370
4.775500	1.763148
4.776000	1.760600
4.776500	1.757414
4.777000	1.758688
4.777500	1.762511
4.778000	1.760600
4.778500	1.758051
4.779000	1.759963
4.779500	1.761874
4.780000	1.759644
4.780500	1.758051
4.781000	1.759644
4.781500	1.760281
4.782000	1.759644
4.782500	1.759644
4.783000	1.760918
4.783500	1.759963
4.784000	1.759326
4.784500	1.759963
4.785000	1.759963
4.785500	1.760600
4.786000	1.760281
4.786500	1.760600
4.787000	1.759326
4.787500	1.759963
4.788000	1.761237
4.788500	1.761237
4.789000	1.758688
4.789500	1.759963
4.790000	1.762511
4.790500	1.761555
4.791000	1.758688
4.791500	1.760600
4.792000	1.763785
4.792500	1.761555
4.793000	1.758051
4.793500	1.760281
4.794000	1.763785
4.794500	1.761237
4.795000	1.758688
4.795500	1.761237
4.796000	1.763785
4.796500	1.761874
4.797000	1.760281
4.797500	1.762192
4.798000	1.762829
4.798500	1.760918
4.799000	1.761237
4.799500	1.761874
4.800000	1.761555
4.800500	1.760600
4.801000	1.761555
4.801500	1.762192
4.802000	1.761555
4.802500	1.762192
4.803000	1.762511
4.803500	1.761874
4.804000	1.760918
4.804500	1.763148
4.805000	1.762829
4.805500	1.760600
4.806000	1.760918
4.806500	1.763467
4.807000	1.763148
4.807500	1.759963
4.808000	1.761237
4.808500	1.764741
4.809000	1.763148
4.809500	1.759007
4.810000	1.761874
4.810500	1.765059
4.811000	1.761237
4.811500	1.759326
4.812000	1.762192
4.812500	1.764104
4.813000	1.761555
4.813500	1.760281
4.814000	1.761874
4.814500	1.763148
4.815000	1.761555
4.815500	1.761555
4.816000	1.762192
4.816500	1.761874
4.817000	1.760918
4.817500	1.761237
4.818000	1.762829
4.818500	1.761237
4.819000	1.761874
4.819500	1.761555
4.820000	1.761874
4.820500	1.760600
4.821000	1.761237
4.821500	1.762192
4.822000	1.760600
4.822500	1.761555
4.823000	1.763467
4.823500	1.762511
4.824000	1.759644
4.824500	1.760281
4.825000	1.763785
4.825500	1.762511
4.826000	1.758688
4.826500	1.760600
4.827000	1.764104
4.827500	1.761874
4.828000	1.758688
4.828500	1.760918
4.829000	1.763785
4.829500	1.761555
4.830000	1.759644
4.830500	1.761555
4.831000	1.763148
4.831500	1.760918
4.832000	1.759326
4.832500	1.761555
4.833000	1.762192
4.833500	1.761237
4.834000	1.760600
4.834500	1.762192
4.835000	1.761237
4.835500	1.760918
4.836000	1.760281
4.836500	1.761237
4.837000	1.760600
4.837500	1.760600
4.838000	1.760600
4.838500	1.759644
4.839000	1.760281
4.839500	1.762511
4.840000	1.761555
4.840500	1.758688
4.841000	1.759963
4.841500	1.762829
4.842000	1.761237
4.842500	1.758370
4.843000	1.759963
4.843500	1.763467
4.844000	1.761237
4.844500	1.758370
4.845000	1.759963
4.845500	1.763467
4.846000	1.760281
4.846500	1.758370
4.847000	1.760281
4.847500	1.762829
4.848000	1.760281
4.848500	1.758688
4.849000	1.759963
4.849500	1.761555
4.850000	1.759644
4.850500	1.759963
4.851000	1.761555
4.851500	1.759963
4.852000	1.759963
4.852500	1.760918
4.853000	1.760918
4.853500	1.760600
4.854000	1.760600
4.854500	1.760281
4.855000	1.760918
4.855500	1.759644
4.856000	1.761237
4.856500	1.760918
4.857000	1.759963
4.857500	1.759963
4.858000	1.761874
4.858500	1.760600
4.859000	1.758051
4.859500	1.759963
4.860000	1.762511
4.860500	1.761237
4.861000	1.758051
4.861500	1.759326
4.862000	1.763148
4.862500	1.761237
4.863000	1.757414
4.863500	1.759963
4.864000	1.763467
4.864500	1.760281
4.865000	1.758370
4.865500	1.759963
4.866000	1.761555
4.866500	1.760281
4.867000	1.759007
4.867500	1.760281
4.868000	1.760600
4.868500	1.759007
4.869000	1.760281
4.869500	1.761237
4.870000	1.760600
4.870500	1.760918
4.871000	1.761555
4.871500	1.760600
4.872000	1.759644
4.872500	1.760281
4.873000	1.761237
4.873500	1.759644
4.874000	1.759644
4.874500	1.761874
4.875000	1.761237
4.875500	1.758370
4.876000	1.759963
4.876500	1.763785
4.877000	1.761555
4.877500	1.758688
4.878000	1.759644
4.878500	1.764104
4.879000	1.761874
4.879500	1.759007
4.880000	1.760600
4.880500	1.763785
4.881000	1.760600
4.881500	1.758688
4.882000	1.760918
4.882500	1.762829
4.883000	1.760918
4.883500	1.759963
4.884000	1.761555
4.884500	1.762192
4.885000	1.759963
4.885500	1.759963
4.886000	1.761874
4.886500	1.761555
4.887000	1.761237
4.887500	1.761237
4.888000	1.761555
4.888500	1.761237
4.889000	1.760281
4.889500	1.761555
4.890000	1.760281
4.890500	1.760918
4.891000	1.762511
4.891500	1.762829
4.892000	1.759644
4.892500	1.760600
4.893000	1.762829
4.893500	1.761555
4.894000	1.758688
4.894500	1.761237
4.895000	1.763785
4.895500	1.761555
4.896000	1.759007
4.896500	1.760600
4.897000	1.764422
4.897500	1.761237
4.898000	1.758370
4.898500	1.760281
4.899000	1.763785
4.899500	1.761237
4.900000	1.759644
4.900500	1.760918
4.901000	1.762192
4.901500	1.761237
4.902000	1.760281
4.902500	1.762511
4.903000	1.761555
4.903500	1.761237
4.904000	1.761237
4.904500	1.761555
4.905000	1.761555
4.905500	1.760918
4.906000	1.761874
4.906500	1.760600
4.907000	1.760918
4.907500	1.761237
4.908000	1.761555
4.908500	1.760918
4.909000	1.761555
4.909500	1.761874
4.910000	1.761237
4.910500	1.760918
4.911000	1.760281
4.911500	1.763148
4.912000	1.768882
4.912500	1.759644
4.913000	1.760281
4.913500	1.764104
4.914000	1.762192
4.914500	1.759644
4.915000	1.759644
4.915500	1.764422
4.916000	1.762192
4.916500	1.758370
4.917000	1.760281
4.917500	1.763467
4.918000	1.759963
4.918500	1.758688
4.919000	1.760600
4.919500	1.762829
4.920000	1.761237
4.920500	1.759963
4.921000	1.761237
4.921500	1.761555
4.922000	1.760600
4.922500	1.760600
4.923000	1.761555
4.923500	1.760918
4.924000	1.759963
4.924500	1.760918
4.925000	1.760918
4.925500	1.759644
4.926000	1.759963
4.926500	1.760918
4.927000	1.759963
4.927500	1.759644
4.928000	1.761237
4.928500	1.760918
4.929000	1.758688
4.929500	1.759007
4.930000	1.762511
4.930500	1.761874
4.931000	1.758370
4.931500	1.759007
4.932000	1.761874
4.932500	1.761237
4.933000	1.758051
4.933500	1.759644
4.934000	1.763467
4.934500	1.761237
4.935000	1.758688
4.935500	1.760281
4.936000	1.763148
4.936500	1.760600
4.937000	1.759007
4.937500	1.759326
4.938000	1.761874
4.938500	1.760281
4.939000	1.759326
4.939500	1.760600
4.940000	1.761555
4.940500	1.759963
4.941000	1.760281
4.941500	1.760918
4.942000	1.760918
4.942500	1.759644
4.943000	1.760600
4.943500	1.761555
4.944000	1.760281
4.944500	1.760281
4.945000	1.761237
4.945500	1.760918
4.946000	1.760918
4.946500	1.761237
4.947000	1.760600
4.947500	1.759963
4.948000	1.759963
4.948500	1.761555
4.949000	1.761555
4.949500	1.758051
4.950000	1.759644
4.950500	1.763148
4.951000	1.760600
4.951500	1.757733
4.952000	1.758688
4.952500	1.762829
4.953000	1.760600
4.953500	1.757733
4.954000	1.759326
4.954500	1.762511
4.955000	1.760600
4.955500	1.757414
4.956000	1.759644
4.956500	1.762192
4.957000	1.760600
4.957500	1.758370
4.958000	1.759963
4.958500	1.761555
4.959000	1.760281
4.959500	1.759007
4.960000	1.760600
4.960500	1.761237
4.961000	1.759644
4.961500	1.759326
4.962000	1.760600
4.962500	1.760918
4.963000	1.760281
4.963500	1.761237
4.964000	1.760281
4.964500	1.759644
4.965000	1.759963
4.965500	1.760600
4.966000	1.759644
4.966500	1.759963
4.967000	1.760600
4.967500	1.760918
4.968000	1.759326
4.968500	1.759326
4.969000	1.762511
4.969500	1.760600
4.970000	1.757414
4.970500	1.759007
4.971000	1.763148
4.971500	1.761874
4.972000	1.757414
4.972500	1.759963
4.973000	1.763785
4.973500	1.761237
4.974000	1.758370
4.974500	1.759326
4.975000	1.762829
4.975500	1.760918
4.976000	1.758051
4.976500	1.760600
4.977000	1.762829
4.977500	1.760600
4.978000	1.759963
4.978500	1.760918
4.979000	1.761874
4.979500	1.759644
4.980000	1.760918
4.980500	1.760918
4.981000	1.760600
4.981500	1.760281
4.982000	1.761555
4.982500	1.761555
4.983000	1.760600
4.983500	1.759644
4.984000	1.760918
4.984500	1.759963
4.985000	1.760918
4.985500	1.761237
4.986000	1.761555
4.986500	1.759326
4.987000	1.760281
4.987500	1.762829
4.988000	1.761555
4.988500	1.758688
4.989000	1.759326
4.989500	1.763148
4.990000	1.761874
4.990500	1.758370
4.991000	1.759644
4.991500	1.763785
4.992000	1.761874
4.992500	1.758370
4.993000	1.761874
4.993500	1.763785
4.994000	1.761237
4.994500	1.759326
4.995000	1.761237
4.995500	1.762192
4.996000	1.759963
4.996500	1.759963
4.997000	1.761237
4.997500	1.762192
4.998000	1.760600
4.998500	1.760600
4.999000	1.761555
4.999500	1.761237

